[{"rt":7664,"stimulus":"<DIV align='left'><div>&nbsp;</div><div>Please consider this information carefully before deciding whether to participate in this research.</div><div>&nbsp;</div><div>The purpose of this research is to examine which factors influence social judgment and decision-</div><div>making. You will be asked to make judgements about individuals and actions in social scenarios.</div><div>We are simply interested in your judgement. The study will take less than 1 hour to complete,</div><div>and you will receive less than $20 on Amazon Mechanical Turk. Your compensation and time</div><div>commitment are specified in the study description. There are no anticipated risks associated with</div><div>participating in this study. The effects of participating should be comparable to those you would</div><div>ordinarily experience from viewing a computer monitor and using a mouse or keyboard for a</div><div>similar amount of time. At the end of the study, we will provide an explanation of the questions</div><div>that motivate this line of research and will describe the potential implications.</div><div>&nbsp;</div><div>Your participation in this study is completely voluntary and you may refuse to participate or you</div><div>may choose to withdraw at any time without penalty or loss of benefits to you which are</div><div>otherwise entitled. Your participation in this study will remain confidential. No personally</div><div>identifiable information will be associated with your data. Also, all analyses of the data will be</div><div>averaged across all the participants, so your individual responses will never be specifically</div><div>analyzed.</div><div>&nbsp;</div><div>If you have questions or concerns about your participation or payment, or want to request a</div><div>summary of research findings, please contact Dr. Jonathan Phillips at</div><div><a href=mailto:Jonathan.S.Phillips@dartmouth.edu>Jonathan.S.Phillips@dartmouth.edu</a>.</div><div>&nbsp;</div><div>Please save a copy of this form for your records.</div><div>&nbsp;</div></DIV><div>Agreement:</div><DIV align='left'><div>The nature and purpose of this research have been sufficiently explained and I agree to</div><div>participate in this study. I understand that I am free to withdraw at any time without incurring</div><div>any penalty. Please consent by clicking the button below to continue. Otherwise, please exit the</div><div>study at any time.</div><div>&nbsp;</div></DIV>","response":0,"trial_type":"html-button-response","trial_index":0,"time_elapsed":7665,"internal_node_id":"0.0-0.0","turk_code":"lvls737x7p7l","usefulFt1":1,"usefulFt2":2,"favoredEnd1":1,"favoredEnd2":0},{"rt":495.2000000476837,"stimulus":"<div class='center-content'><br><br><br><br>Welcome to the HIT. Press any key to begin.","response":" ","trial_type":"html-keyboard-response","trial_index":1,"time_elapsed":8162,"internal_node_id":"0.0-1.0","turk_code":"lvls737x7p7l","usefulFt1":1,"usefulFt2":2,"favoredEnd1":1,"favoredEnd2":0},{"rt":5158.400000095367,"response":{"subject_id":"idagain2"},"trial_type":"survey-text","trial_index":2,"time_elapsed":13326,"internal_node_id":"0.0-2.0","turk_code":"lvls737x7p7l","usefulFt1":1,"usefulFt2":2,"favoredEnd1":1,"favoredEnd2":0},{"rt":600.7999999523163,"stimulus":"<div>In this experiment, you will be asked to identify different robots.</div><div>You will have to learn their names as you go.<br><br> Press any key to begin.","response":" ","trial_type":"html-keyboard-response","trial_index":3,"time_elapsed":13928,"internal_node_id":"0.0-3.0","turk_code":"lvls737x7p7l","usefulFt1":1,"usefulFt2":2,"favoredEnd1":1,"favoredEnd2":0},{"rt":13313.599999904633,"response":0,"namedWug":[1,1,0,0],"otherWug":[1,0,0,0],"name":"Wayne","otherName":"Vincent","left":0,"trial_type":"canvas-button-response","trial_index":4,"time_elapsed":27247,"internal_node_id":"0.0-4.0-0.0-0.0","turk_code":"lvls737x7p7l","usefulFt1":1,"usefulFt2":2,"favoredEnd1":1,"favoredEnd2":0,"correct":false},{"rt":1120.9000000953674,"response":0,"name":"Wayne","otherName":"Vincent","namedWug":[1,1,0,0],"otherWug":[1,0,0,0],"trialCorrect":false,"trial_type":"canvas-button-response","trial_index":5,"time_elapsed":28372,"internal_node_id":"0.0-4.0-0.0-1.0","turk_code":"lvls737x7p7l","usefulFt1":1,"usefulFt2":2,"favoredEnd1":1,"favoredEnd2":0},{"rt":1213.8999998569489,"response":0,"first":"named","answer":0,"name":"Wayne","otherName":"Vincent","namedWug":[1,1,0,0],"otherWug":[1,0,0,0],"trial_type":"canvas-button-response","trial_index":6,"time_elapsed":29589,"internal_node_id":"0.0-4.0-0.0-2.0-0.0-0.0","turk_code":"lvls737x7p7l","usefulFt1":1,"usefulFt2":2,"favoredEnd1":1,"favoredEnd2":0},{"rt":480.89999985694885,"stimulus":"<div><b>Correct!</b></div><div> </div><div>Press any key to continue</div>","response":0,"first":"named","answer":0,"name":"Wayne","otherName":"Vincent","namedWug":[1,1,0,0],"otherWug":[1,0,0,0],"trial_type":"html-keyboard-response","trial_index":7,"time_elapsed":30071,"internal_node_id":"0.0-4.0-0.0-2.0-0.0-1.0","turk_code":"lvls737x7p7l","usefulFt1":1,"usefulFt2":2,"favoredEnd1":1,"favoredEnd2":0},{"rt":823.6000001430511,"response":1,"first":"named","answer":1,"name":"Wayne","otherName":"Vincent","namedWug":[1,1,0,0],"otherWug":[1,0,0,0],"trial_type":"canvas-button-response","trial_index":8,"time_elapsed":30897,"internal_node_id":"0.0-4.0-0.0-2.0-1.0-0.0","turk_code":"lvls737x7p7l","usefulFt1":1,"usefulFt2":2,"favoredEnd1":1,"favoredEnd2":0},{"rt":268.40000009536743,"stimulus":"<div><b>Correct!</b></div><div> </div><div>Press any key to continue</div>","response":1,"first":"named","answer":1,"name":"Wayne","otherName":"Vincent","namedWug":[1,1,0,0],"otherWug":[1,0,0,0],"trial_type":"html-keyboard-response","trial_index":9,"time_elapsed":31167,"internal_node_id":"0.0-4.0-0.0-2.0-1.0-1.0","turk_code":"lvls737x7p7l","usefulFt1":1,"usefulFt2":2,"favoredEnd1":1,"favoredEnd2":0},{"rt":1439.8000001907349,"response":0,"namedWug":[0,0,0,1],"otherWug":[0,0,1,1],"name":"Danielle","otherName":"Beverly","left":0,"trial_type":"canvas-button-response","trial_index":10,"time_elapsed":32608,"internal_node_id":"0.0-4.0-0.1-0.1","turk_code":"lvls737x7p7l","usefulFt1":1,"usefulFt2":2,"favoredEnd1":1,"favoredEnd2":0,"correct":false},{"rt":1416.7999999523163,"response":0,"name":"Danielle","otherName":"Beverly","namedWug":[0,0,0,1],"otherWug":[0,0,1,1],"trialCorrect":false,"trial_type":"canvas-button-response","trial_index":11,"time_elapsed":34027,"internal_node_id":"0.0-4.0-0.1-1.1","turk_code":"lvls737x7p7l","usefulFt1":1,"usefulFt2":2,"favoredEnd1":1,"favoredEnd2":0},{"rt":1229.7000000476837,"response":1,"first":"other","answer":1,"name":"Danielle","otherName":"Beverly","namedWug":[0,0,0,1],"otherWug":[0,0,1,1],"trial_type":"canvas-button-response","trial_index":12,"time_elapsed":35258,"internal_node_id":"0.0-4.0-0.1-2.1-0.1-0.1","turk_code":"lvls737x7p7l","usefulFt1":1,"usefulFt2":2,"favoredEnd1":1,"favoredEnd2":0},{"rt":337.5,"stimulus":"<div><b>Correct!</b></div><div> </div><div>Press any key to continue</div>","response":1,"first":"other","answer":1,"name":"Danielle","otherName":"Beverly","namedWug":[0,0,0,1],"otherWug":[0,0,1,1],"trial_type":"html-keyboard-response","trial_index":13,"time_elapsed":35597,"internal_node_id":"0.0-4.0-0.1-2.1-0.1-1.1","turk_code":"lvls737x7p7l","usefulFt1":1,"usefulFt2":2,"favoredEnd1":1,"favoredEnd2":0},{"rt":1018.2000000476837,"response":0,"first":"other","answer":0,"name":"Danielle","otherName":"Beverly","namedWug":[0,0,0,1],"otherWug":[0,0,1,1],"trial_type":"canvas-button-response","trial_index":14,"time_elapsed":36616,"internal_node_id":"0.0-4.0-0.1-2.1-1.1-0.1","turk_code":"lvls737x7p7l","usefulFt1":1,"usefulFt2":2,"favoredEnd1":1,"favoredEnd2":0},{"rt":430,"stimulus":"<div><b>Correct!</b></div><div> </div><div>Press any key to continue</div>","response":0,"first":"other","answer":0,"name":"Danielle","otherName":"Beverly","namedWug":[0,0,0,1],"otherWug":[0,0,1,1],"trial_type":"html-keyboard-response","trial_index":15,"time_elapsed":37047,"internal_node_id":"0.0-4.0-0.1-2.1-1.1-1.1","turk_code":"lvls737x7p7l","usefulFt1":1,"usefulFt2":2,"favoredEnd1":1,"favoredEnd2":0},{"rt":2229.7000000476837,"response":1,"namedWug":[1,0,0,0],"otherWug":[0,1,1,1],"name":"Vincent","otherName":"Ray","left":0,"trial_type":"canvas-button-response","trial_index":16,"time_elapsed":39279,"internal_node_id":"0.0-4.0-0.2-0.2","turk_code":"lvls737x7p7l","usefulFt1":1,"usefulFt2":2,"favoredEnd1":1,"favoredEnd2":0,"correct":true},{"rt":914,"response":0,"name":"Vincent","otherName":"Ray","namedWug":[1,0,0,0],"otherWug":[0,1,1,1],"trialCorrect":true,"trial_type":"canvas-button-response","trial_index":17,"time_elapsed":40195,"internal_node_id":"0.0-4.0-0.2-1.2","turk_code":"lvls737x7p7l","usefulFt1":1,"usefulFt2":2,"favoredEnd1":1,"favoredEnd2":0},{"rt":1667.3000001907349,"response":0,"namedWug":[0,1,1,1],"otherWug":[1,0,0,0],"name":"Ray","otherName":"Vincent","left":1,"trial_type":"canvas-button-response","trial_index":18,"time_elapsed":41863,"internal_node_id":"0.0-4.0-0.3-0.3","turk_code":"lvls737x7p7l","usefulFt1":1,"usefulFt2":2,"favoredEnd1":1,"favoredEnd2":0,"correct":true},{"rt":1301.5,"response":0,"name":"Ray","otherName":"Vincent","namedWug":[0,1,1,1],"otherWug":[1,0,0,0],"trialCorrect":true,"trial_type":"canvas-button-response","trial_index":19,"time_elapsed":43167,"internal_node_id":"0.0-4.0-0.3-1.3","turk_code":"lvls737x7p7l","usefulFt1":1,"usefulFt2":2,"favoredEnd1":1,"favoredEnd2":0},{"rt":2762,"response":0,"namedWug":[0,1,0,1],"otherWug":[0,0,0,1],"name":"Kayla","otherName":"Danielle","left":1,"trial_type":"canvas-button-response","trial_index":20,"time_elapsed":45930,"internal_node_id":"0.0-4.0-0.4-0.4","turk_code":"lvls737x7p7l","usefulFt1":1,"usefulFt2":2,"favoredEnd1":1,"favoredEnd2":0,"correct":true},{"rt":2194.0999999046326,"response":0,"name":"Kayla","otherName":"Danielle","namedWug":[0,1,0,1],"otherWug":[0,0,0,1],"trialCorrect":true,"trial_type":"canvas-button-response","trial_index":21,"time_elapsed":48126,"internal_node_id":"0.0-4.0-0.4-1.4","turk_code":"lvls737x7p7l","usefulFt1":1,"usefulFt2":2,"favoredEnd1":1,"favoredEnd2":0},{"rt":3556.100000143051,"response":1,"namedWug":[0,1,1,1],"otherWug":[0,0,1,1],"name":"Ray","otherName":"Beverly","left":0,"trial_type":"canvas-button-response","trial_index":22,"time_elapsed":51684,"internal_node_id":"0.0-4.0-0.5-0.5","turk_code":"lvls737x7p7l","usefulFt1":1,"usefulFt2":2,"favoredEnd1":1,"favoredEnd2":0,"correct":true},{"rt":2003.8000001907349,"response":0,"name":"Ray","otherName":"Beverly","namedWug":[0,1,1,1],"otherWug":[0,0,1,1],"trialCorrect":true,"trial_type":"canvas-button-response","trial_index":23,"time_elapsed":53690,"internal_node_id":"0.0-4.0-0.5-1.5","turk_code":"lvls737x7p7l","usefulFt1":1,"usefulFt2":2,"favoredEnd1":1,"favoredEnd2":0},{"rt":3997.100000143051,"response":0,"namedWug":[1,1,1,0],"otherWug":[0,0,0,1],"name":"Theresa","otherName":"Danielle","left":1,"trial_type":"canvas-button-response","trial_index":24,"time_elapsed":57688,"internal_node_id":"0.0-4.0-0.6-0.6","turk_code":"lvls737x7p7l","usefulFt1":1,"usefulFt2":2,"favoredEnd1":1,"favoredEnd2":0,"correct":true},{"rt":1118,"response":0,"name":"Theresa","otherName":"Danielle","namedWug":[1,1,1,0],"otherWug":[0,0,0,1],"trialCorrect":true,"trial_type":"canvas-button-response","trial_index":25,"time_elapsed":58808,"internal_node_id":"0.0-4.0-0.6-1.6","turk_code":"lvls737x7p7l","usefulFt1":1,"usefulFt2":2,"favoredEnd1":1,"favoredEnd2":0},{"rt":3048.0999999046326,"response":0,"namedWug":[1,1,0,0],"otherWug":[1,1,1,0],"name":"Wayne","otherName":"Theresa","left":1,"trial_type":"canvas-button-response","trial_index":26,"time_elapsed":61858,"internal_node_id":"0.0-4.0-0.7-0.7","turk_code":"lvls737x7p7l","usefulFt1":1,"usefulFt2":2,"favoredEnd1":1,"favoredEnd2":0,"correct":true},{"rt":1285.2000000476837,"response":0,"name":"Wayne","otherName":"Theresa","namedWug":[1,1,0,0],"otherWug":[1,1,1,0],"trialCorrect":true,"trial_type":"canvas-button-response","trial_index":27,"time_elapsed":63145,"internal_node_id":"0.0-4.0-0.7-1.7","turk_code":"lvls737x7p7l","usefulFt1":1,"usefulFt2":2,"favoredEnd1":1,"favoredEnd2":0},{"rt":4099.5,"response":0,"namedWug":[0,0,1,1],"otherWug":[1,1,0,0],"name":"Beverly","otherName":"Wayne","left":1,"trial_type":"canvas-button-response","trial_index":28,"time_elapsed":67247,"internal_node_id":"0.0-4.0-0.8-0.8","turk_code":"lvls737x7p7l","usefulFt1":1,"usefulFt2":2,"favoredEnd1":1,"favoredEnd2":0,"correct":true},{"rt":1426.0999999046326,"response":0,"name":"Beverly","otherName":"Wayne","namedWug":[0,0,1,1],"otherWug":[1,1,0,0],"trialCorrect":true,"trial_type":"canvas-button-response","trial_index":29,"time_elapsed":68675,"internal_node_id":"0.0-4.0-0.8-1.8","turk_code":"lvls737x7p7l","usefulFt1":1,"usefulFt2":2,"favoredEnd1":1,"favoredEnd2":0},{"rt":4658.100000143051,"response":1,"namedWug":[0,0,0,1],"otherWug":[1,1,1,0],"name":"Danielle","otherName":"Theresa","left":0,"trial_type":"canvas-button-response","trial_index":30,"time_elapsed":73335,"internal_node_id":"0.0-4.0-0.9-0.9","turk_code":"lvls737x7p7l","usefulFt1":1,"usefulFt2":2,"favoredEnd1":1,"favoredEnd2":0,"correct":true},{"rt":2710.399999856949,"response":0,"name":"Danielle","otherName":"Theresa","namedWug":[0,0,0,1],"otherWug":[1,1,1,0],"trialCorrect":true,"trial_type":"canvas-button-response","trial_index":31,"time_elapsed":76046,"internal_node_id":"0.0-4.0-0.9-1.9","turk_code":"lvls737x7p7l","usefulFt1":1,"usefulFt2":2,"favoredEnd1":1,"favoredEnd2":0},{"rt":3359.100000143051,"response":1,"namedWug":[1,0,1,0],"otherWug":[0,1,0,1],"name":"Doris","otherName":"Kayla","left":1,"trial_type":"canvas-button-response","trial_index":32,"time_elapsed":79407,"internal_node_id":"0.0-4.0-0.10-0.10","turk_code":"lvls737x7p7l","usefulFt1":1,"usefulFt2":2,"favoredEnd1":1,"favoredEnd2":0,"correct":false},{"rt":1584.6999998092651,"response":0,"name":"Doris","otherName":"Kayla","namedWug":[1,0,1,0],"otherWug":[0,1,0,1],"trialCorrect":false,"trial_type":"canvas-button-response","trial_index":33,"time_elapsed":80994,"internal_node_id":"0.0-4.0-0.10-1.10","turk_code":"lvls737x7p7l","usefulFt1":1,"usefulFt2":2,"favoredEnd1":1,"favoredEnd2":0},{"rt":978.2000000476837,"response":0,"first":"named","answer":0,"name":"Doris","otherName":"Kayla","namedWug":[1,0,1,0],"otherWug":[0,1,0,1],"trial_type":"canvas-button-response","trial_index":34,"time_elapsed":81973,"internal_node_id":"0.0-4.0-0.10-2.10-0.10-0.10","turk_code":"lvls737x7p7l","usefulFt1":1,"usefulFt2":2,"favoredEnd1":1,"favoredEnd2":0},{"rt":315.2000000476837,"stimulus":"<div><b>Correct!</b></div><div> </div><div>Press any key to continue</div>","response":0,"first":"named","answer":0,"name":"Doris","otherName":"Kayla","namedWug":[1,0,1,0],"otherWug":[0,1,0,1],"trial_type":"html-keyboard-response","trial_index":35,"time_elapsed":82289,"internal_node_id":"0.0-4.0-0.10-2.10-0.10-1.10","turk_code":"lvls737x7p7l","usefulFt1":1,"usefulFt2":2,"favoredEnd1":1,"favoredEnd2":0},{"rt":1009.8000001907349,"response":1,"first":"named","answer":1,"name":"Doris","otherName":"Kayla","namedWug":[1,0,1,0],"otherWug":[0,1,0,1],"trial_type":"canvas-button-response","trial_index":36,"time_elapsed":83301,"internal_node_id":"0.0-4.0-0.10-2.10-1.10-0.10","turk_code":"lvls737x7p7l","usefulFt1":1,"usefulFt2":2,"favoredEnd1":1,"favoredEnd2":0},{"rt":638.2000000476837,"stimulus":"<div><b>Correct!</b></div><div> </div><div>Press any key to continue</div>","response":1,"first":"named","answer":1,"name":"Doris","otherName":"Kayla","namedWug":[1,0,1,0],"otherWug":[0,1,0,1],"trial_type":"html-keyboard-response","trial_index":37,"time_elapsed":83940,"internal_node_id":"0.0-4.0-0.10-2.10-1.10-1.10","turk_code":"lvls737x7p7l","usefulFt1":1,"usefulFt2":2,"favoredEnd1":1,"favoredEnd2":0},{"rt":3443.7999999523163,"response":0,"namedWug":[1,0,0,0],"otherWug":[1,0,1,0],"name":"Vincent","otherName":"Doris","left":1,"trial_type":"canvas-button-response","trial_index":38,"time_elapsed":87385,"internal_node_id":"0.0-4.0-0.11-0.11","turk_code":"lvls737x7p7l","usefulFt1":1,"usefulFt2":2,"favoredEnd1":1,"favoredEnd2":0,"correct":true},{"rt":929.4000000953674,"response":0,"name":"Vincent","otherName":"Doris","namedWug":[1,0,0,0],"otherWug":[1,0,1,0],"trialCorrect":true,"trial_type":"canvas-button-response","trial_index":39,"time_elapsed":88316,"internal_node_id":"0.0-4.0-0.11-1.11","turk_code":"lvls737x7p7l","usefulFt1":1,"usefulFt2":2,"favoredEnd1":1,"favoredEnd2":0},{"rt":970.2000000476837,"response":0,"namedWug":[0,1,0,1],"otherWug":[0,1,1,1],"name":"Kayla","otherName":"Ray","left":1,"trial_type":"canvas-button-response","trial_index":40,"time_elapsed":89288,"internal_node_id":"0.0-4.0-0.12-0.12","turk_code":"lvls737x7p7l","usefulFt1":1,"usefulFt2":2,"favoredEnd1":1,"favoredEnd2":0,"correct":true},{"rt":702.0999999046326,"response":0,"name":"Kayla","otherName":"Ray","namedWug":[0,1,0,1],"otherWug":[0,1,1,1],"trialCorrect":true,"trial_type":"canvas-button-response","trial_index":41,"time_elapsed":89992,"internal_node_id":"0.0-4.0-0.12-1.12","turk_code":"lvls737x7p7l","usefulFt1":1,"usefulFt2":2,"favoredEnd1":1,"favoredEnd2":0},{"rt":852.1999998092651,"response":1,"namedWug":[0,0,1,1],"otherWug":[1,1,0,0],"name":"Beverly","otherName":"Wayne","left":1,"trial_type":"canvas-button-response","trial_index":42,"time_elapsed":90846,"internal_node_id":"0.0-4.0-0.13-0.13","turk_code":"lvls737x7p7l","usefulFt1":1,"usefulFt2":2,"favoredEnd1":1,"favoredEnd2":0,"correct":false},{"rt":863.7999999523163,"response":0,"name":"Beverly","otherName":"Wayne","namedWug":[0,0,1,1],"otherWug":[1,1,0,0],"trialCorrect":false,"trial_type":"canvas-button-response","trial_index":43,"time_elapsed":91713,"internal_node_id":"0.0-4.0-0.13-1.13","turk_code":"lvls737x7p7l","usefulFt1":1,"usefulFt2":2,"favoredEnd1":1,"favoredEnd2":0},{"rt":906.4000000953674,"response":1,"first":"other","answer":1,"name":"Beverly","otherName":"Wayne","namedWug":[0,0,1,1],"otherWug":[1,1,0,0],"trial_type":"canvas-button-response","trial_index":44,"time_elapsed":92621,"internal_node_id":"0.0-4.0-0.13-2.13-0.13-0.13","turk_code":"lvls737x7p7l","usefulFt1":1,"usefulFt2":2,"favoredEnd1":1,"favoredEnd2":0},{"rt":399.2999999523163,"stimulus":"<div><b>Correct!</b></div><div> </div><div>Press any key to continue</div>","response":1,"first":"other","answer":1,"name":"Beverly","otherName":"Wayne","namedWug":[0,0,1,1],"otherWug":[1,1,0,0],"trial_type":"html-keyboard-response","trial_index":45,"time_elapsed":93020,"internal_node_id":"0.0-4.0-0.13-2.13-0.13-1.13","turk_code":"lvls737x7p7l","usefulFt1":1,"usefulFt2":2,"favoredEnd1":1,"favoredEnd2":0},{"rt":459.7999999523163,"response":0,"first":"other","answer":0,"name":"Beverly","otherName":"Wayne","namedWug":[0,0,1,1],"otherWug":[1,1,0,0],"trial_type":"canvas-button-response","trial_index":46,"time_elapsed":93481,"internal_node_id":"0.0-4.0-0.13-2.13-1.13-0.13","turk_code":"lvls737x7p7l","usefulFt1":1,"usefulFt2":2,"favoredEnd1":1,"favoredEnd2":0},{"rt":314.60000014305115,"stimulus":"<div><b>Correct!</b></div><div> </div><div>Press any key to continue</div>","response":0,"first":"other","answer":0,"name":"Beverly","otherName":"Wayne","namedWug":[0,0,1,1],"otherWug":[1,1,0,0],"trial_type":"html-keyboard-response","trial_index":47,"time_elapsed":93797,"internal_node_id":"0.0-4.0-0.13-2.13-1.13-1.13","turk_code":"lvls737x7p7l","usefulFt1":1,"usefulFt2":2,"favoredEnd1":1,"favoredEnd2":0},{"rt":1447.5,"response":0,"namedWug":[1,1,1,0],"otherWug":[1,0,1,0],"name":"Theresa","otherName":"Doris","left":0,"trial_type":"canvas-button-response","trial_index":48,"time_elapsed":95246,"internal_node_id":"0.0-4.0-0.14-0.14","turk_code":"lvls737x7p7l","usefulFt1":1,"usefulFt2":2,"favoredEnd1":1,"favoredEnd2":0,"correct":false},{"rt":974.5999999046326,"response":0,"name":"Theresa","otherName":"Doris","namedWug":[1,1,1,0],"otherWug":[1,0,1,0],"trialCorrect":false,"trial_type":"canvas-button-response","trial_index":49,"time_elapsed":96223,"internal_node_id":"0.0-4.0-0.14-1.14","turk_code":"lvls737x7p7l","usefulFt1":1,"usefulFt2":2,"favoredEnd1":1,"favoredEnd2":0},{"rt":1033.4000000953674,"response":0,"first":"other","answer":1,"name":"Theresa","otherName":"Doris","namedWug":[1,1,1,0],"otherWug":[1,0,1,0],"trial_type":"canvas-button-response","trial_index":50,"time_elapsed":97257,"internal_node_id":"0.0-4.0-0.14-2.14-0.14-0.14","turk_code":"lvls737x7p7l","usefulFt1":1,"usefulFt2":2,"favoredEnd1":1,"favoredEnd2":0},{"rt":379.40000009536743,"stimulus":"<div><b>Incorrect!</b></div><div> </div><div>Press any key to try again</div>","response":0,"first":"other","answer":1,"name":"Theresa","otherName":"Doris","namedWug":[1,1,1,0],"otherWug":[1,0,1,0],"trial_type":"html-keyboard-response","trial_index":51,"time_elapsed":97638,"internal_node_id":"0.0-4.0-0.14-2.14-0.14-1.14","turk_code":"lvls737x7p7l","usefulFt1":1,"usefulFt2":2,"favoredEnd1":1,"favoredEnd2":0},{"rt":542.4000000953674,"response":1,"first":"other","answer":1,"name":"Theresa","otherName":"Doris","namedWug":[1,1,1,0],"otherWug":[1,0,1,0],"trial_type":"canvas-button-response","trial_index":52,"time_elapsed":98181,"internal_node_id":"0.0-4.0-0.14-2.14-0.15-0.15","turk_code":"lvls737x7p7l","usefulFt1":1,"usefulFt2":2,"favoredEnd1":1,"favoredEnd2":0},{"rt":260.7000000476837,"stimulus":"<div><b>Correct!</b></div><div> </div><div>Press any key to continue</div>","response":1,"first":"other","answer":1,"name":"Theresa","otherName":"Doris","namedWug":[1,1,1,0],"otherWug":[1,0,1,0],"trial_type":"html-keyboard-response","trial_index":53,"time_elapsed":98443,"internal_node_id":"0.0-4.0-0.14-2.14-0.15-1.15","turk_code":"lvls737x7p7l","usefulFt1":1,"usefulFt2":2,"favoredEnd1":1,"favoredEnd2":0},{"rt":803.6000001430511,"response":0,"first":"other","answer":0,"name":"Theresa","otherName":"Doris","namedWug":[1,1,1,0],"otherWug":[1,0,1,0],"trial_type":"canvas-button-response","trial_index":54,"time_elapsed":99248,"internal_node_id":"0.0-4.0-0.14-2.14-1.14-0.14","turk_code":"lvls737x7p7l","usefulFt1":1,"usefulFt2":2,"favoredEnd1":1,"favoredEnd2":0},{"rt":297.5,"stimulus":"<div><b>Correct!</b></div><div> </div><div>Press any key to continue</div>","response":0,"first":"other","answer":0,"name":"Theresa","otherName":"Doris","namedWug":[1,1,1,0],"otherWug":[1,0,1,0],"trial_type":"html-keyboard-response","trial_index":55,"time_elapsed":99547,"internal_node_id":"0.0-4.0-0.14-2.14-1.14-1.14","turk_code":"lvls737x7p7l","usefulFt1":1,"usefulFt2":2,"favoredEnd1":1,"favoredEnd2":0},{"rt":1549.0999999046326,"response":0,"namedWug":[1,0,1,0],"otherWug":[0,1,0,1],"name":"Doris","otherName":"Kayla","left":1,"trial_type":"canvas-button-response","trial_index":56,"time_elapsed":101097,"internal_node_id":"0.0-4.0-0.15-0.15","turk_code":"lvls737x7p7l","usefulFt1":1,"usefulFt2":2,"favoredEnd1":1,"favoredEnd2":0,"correct":true},{"rt":763.7000000476837,"response":0,"name":"Doris","otherName":"Kayla","namedWug":[1,0,1,0],"otherWug":[0,1,0,1],"trialCorrect":true,"trial_type":"canvas-button-response","trial_index":57,"time_elapsed":101862,"internal_node_id":"0.0-4.0-0.15-1.15","turk_code":"lvls737x7p7l","usefulFt1":1,"usefulFt2":2,"favoredEnd1":1,"favoredEnd2":0},{"rt":2211.100000143051,"response":0,"namedWug":[1,1,0,0],"otherWug":[1,0,0,0],"name":"Wayne","otherName":"Vincent","left":1,"trial_type":"canvas-button-response","trial_index":58,"time_elapsed":104074,"internal_node_id":"0.0-4.0-0.16-0.16","turk_code":"lvls737x7p7l","usefulFt1":1,"usefulFt2":2,"favoredEnd1":1,"favoredEnd2":0,"correct":true},{"rt":1151.9000000953674,"response":0,"name":"Wayne","otherName":"Vincent","namedWug":[1,1,0,0],"otherWug":[1,0,0,0],"trialCorrect":true,"trial_type":"canvas-button-response","trial_index":59,"time_elapsed":105227,"internal_node_id":"0.0-4.0-0.16-1.16","turk_code":"lvls737x7p7l","usefulFt1":1,"usefulFt2":2,"favoredEnd1":1,"favoredEnd2":0},{"rt":2803.7999999523163,"response":0,"namedWug":[0,0,0,1],"otherWug":[0,0,1,1],"name":"Danielle","otherName":"Beverly","left":1,"trial_type":"canvas-button-response","trial_index":60,"time_elapsed":108033,"internal_node_id":"0.0-4.0-0.17-0.17","turk_code":"lvls737x7p7l","usefulFt1":1,"usefulFt2":2,"favoredEnd1":1,"favoredEnd2":0,"correct":true},{"rt":900.3000001907349,"response":0,"name":"Danielle","otherName":"Beverly","namedWug":[0,0,0,1],"otherWug":[0,0,1,1],"trialCorrect":true,"trial_type":"canvas-button-response","trial_index":61,"time_elapsed":108934,"internal_node_id":"0.0-4.0-0.17-1.17","turk_code":"lvls737x7p7l","usefulFt1":1,"usefulFt2":2,"favoredEnd1":1,"favoredEnd2":0},{"rt":2690.0999999046326,"response":1,"namedWug":[1,0,0,0],"otherWug":[0,1,1,1],"name":"Vincent","otherName":"Ray","left":1,"trial_type":"canvas-button-response","trial_index":62,"time_elapsed":111626,"internal_node_id":"0.0-4.0-0.18-0.18","turk_code":"lvls737x7p7l","usefulFt1":1,"usefulFt2":2,"favoredEnd1":1,"favoredEnd2":0,"correct":false},{"rt":1301.2000000476837,"response":0,"name":"Vincent","otherName":"Ray","namedWug":[1,0,0,0],"otherWug":[0,1,1,1],"trialCorrect":false,"trial_type":"canvas-button-response","trial_index":63,"time_elapsed":112929,"internal_node_id":"0.0-4.0-0.18-1.18","turk_code":"lvls737x7p7l","usefulFt1":1,"usefulFt2":2,"favoredEnd1":1,"favoredEnd2":0},{"rt":1509.0999999046326,"response":1,"first":"other","answer":1,"name":"Vincent","otherName":"Ray","namedWug":[1,0,0,0],"otherWug":[0,1,1,1],"trial_type":"canvas-button-response","trial_index":64,"time_elapsed":114440,"internal_node_id":"0.0-4.0-0.18-2.18-0.19-0.19","turk_code":"lvls737x7p7l","usefulFt1":1,"usefulFt2":2,"favoredEnd1":1,"favoredEnd2":0},{"rt":278.7999999523163,"stimulus":"<div><b>Correct!</b></div><div> </div><div>Press any key to continue</div>","response":1,"first":"other","answer":1,"name":"Vincent","otherName":"Ray","namedWug":[1,0,0,0],"otherWug":[0,1,1,1],"trial_type":"html-keyboard-response","trial_index":65,"time_elapsed":114720,"internal_node_id":"0.0-4.0-0.18-2.18-0.19-1.19","turk_code":"lvls737x7p7l","usefulFt1":1,"usefulFt2":2,"favoredEnd1":1,"favoredEnd2":0},{"rt":674.5999999046326,"response":0,"first":"other","answer":0,"name":"Vincent","otherName":"Ray","namedWug":[1,0,0,0],"otherWug":[0,1,1,1],"trial_type":"canvas-button-response","trial_index":66,"time_elapsed":115396,"internal_node_id":"0.0-4.0-0.18-2.18-1.18-0.18","turk_code":"lvls737x7p7l","usefulFt1":1,"usefulFt2":2,"favoredEnd1":1,"favoredEnd2":0},{"rt":335.59999990463257,"stimulus":"<div><b>Correct!</b></div><div> </div><div>Press any key to continue</div>","response":0,"first":"other","answer":0,"name":"Vincent","otherName":"Ray","namedWug":[1,0,0,0],"otherWug":[0,1,1,1],"trial_type":"html-keyboard-response","trial_index":67,"time_elapsed":115733,"internal_node_id":"0.0-4.0-0.18-2.18-1.18-1.18","turk_code":"lvls737x7p7l","usefulFt1":1,"usefulFt2":2,"favoredEnd1":1,"favoredEnd2":0},{"rt":1374.5999999046326,"response":0,"namedWug":[0,1,1,1],"otherWug":[1,0,0,0],"name":"Ray","otherName":"Vincent","left":1,"trial_type":"canvas-button-response","trial_index":68,"time_elapsed":117109,"internal_node_id":"0.0-4.0-0.19-0.19","turk_code":"lvls737x7p7l","usefulFt1":1,"usefulFt2":2,"favoredEnd1":1,"favoredEnd2":0,"correct":true},{"rt":1695.0999999046326,"response":0,"name":"Ray","otherName":"Vincent","namedWug":[0,1,1,1],"otherWug":[1,0,0,0],"trialCorrect":true,"trial_type":"canvas-button-response","trial_index":69,"time_elapsed":118806,"internal_node_id":"0.0-4.0-0.19-1.19","turk_code":"lvls737x7p7l","usefulFt1":1,"usefulFt2":2,"favoredEnd1":1,"favoredEnd2":0},{"rt":3635.2999999523163,"response":0,"namedWug":[0,1,0,1],"otherWug":[0,0,0,1],"name":"Kayla","otherName":"Danielle","left":1,"trial_type":"canvas-button-response","trial_index":70,"time_elapsed":122443,"internal_node_id":"0.0-4.0-0.20-0.20","turk_code":"lvls737x7p7l","usefulFt1":1,"usefulFt2":2,"favoredEnd1":1,"favoredEnd2":0,"correct":true},{"rt":898.8999998569489,"response":0,"name":"Kayla","otherName":"Danielle","namedWug":[0,1,0,1],"otherWug":[0,0,0,1],"trialCorrect":true,"trial_type":"canvas-button-response","trial_index":71,"time_elapsed":123343,"internal_node_id":"0.0-4.0-0.20-1.20","turk_code":"lvls737x7p7l","usefulFt1":1,"usefulFt2":2,"favoredEnd1":1,"favoredEnd2":0},{"rt":1215.5999999046326,"response":0,"namedWug":[0,1,1,1],"otherWug":[0,0,1,1],"name":"Ray","otherName":"Beverly","left":1,"trial_type":"canvas-button-response","trial_index":72,"time_elapsed":124560,"internal_node_id":"0.0-4.0-0.21-0.21","turk_code":"lvls737x7p7l","usefulFt1":1,"usefulFt2":2,"favoredEnd1":1,"favoredEnd2":0,"correct":true},{"rt":842.8999998569489,"response":0,"name":"Ray","otherName":"Beverly","namedWug":[0,1,1,1],"otherWug":[0,0,1,1],"trialCorrect":true,"trial_type":"canvas-button-response","trial_index":73,"time_elapsed":125404,"internal_node_id":"0.0-4.0-0.21-1.21","turk_code":"lvls737x7p7l","usefulFt1":1,"usefulFt2":2,"favoredEnd1":1,"favoredEnd2":0},{"rt":1177.7999999523163,"response":0,"namedWug":[1,1,1,0],"otherWug":[0,0,0,1],"name":"Theresa","otherName":"Danielle","left":0,"trial_type":"canvas-button-response","trial_index":74,"time_elapsed":126584,"internal_node_id":"0.0-4.0-0.22-0.22","turk_code":"lvls737x7p7l","usefulFt1":1,"usefulFt2":2,"favoredEnd1":1,"favoredEnd2":0,"correct":false},{"rt":920,"response":0,"name":"Theresa","otherName":"Danielle","namedWug":[1,1,1,0],"otherWug":[0,0,0,1],"trialCorrect":false,"trial_type":"canvas-button-response","trial_index":75,"time_elapsed":127505,"internal_node_id":"0.0-4.0-0.22-1.22","turk_code":"lvls737x7p7l","usefulFt1":1,"usefulFt2":2,"favoredEnd1":1,"favoredEnd2":0},{"rt":946.4000000953674,"response":1,"first":"other","answer":1,"name":"Theresa","otherName":"Danielle","namedWug":[1,1,1,0],"otherWug":[0,0,0,1],"trial_type":"canvas-button-response","trial_index":76,"time_elapsed":128453,"internal_node_id":"0.0-4.0-0.22-2.22-0.23-0.23","turk_code":"lvls737x7p7l","usefulFt1":1,"usefulFt2":2,"favoredEnd1":1,"favoredEnd2":0},{"rt":323.90000009536743,"stimulus":"<div><b>Correct!</b></div><div> </div><div>Press any key to continue</div>","response":1,"first":"other","answer":1,"name":"Theresa","otherName":"Danielle","namedWug":[1,1,1,0],"otherWug":[0,0,0,1],"trial_type":"html-keyboard-response","trial_index":77,"time_elapsed":128778,"internal_node_id":"0.0-4.0-0.22-2.22-0.23-1.23","turk_code":"lvls737x7p7l","usefulFt1":1,"usefulFt2":2,"favoredEnd1":1,"favoredEnd2":0},{"rt":528.5,"response":0,"first":"other","answer":0,"name":"Theresa","otherName":"Danielle","namedWug":[1,1,1,0],"otherWug":[0,0,0,1],"trial_type":"canvas-button-response","trial_index":78,"time_elapsed":129307,"internal_node_id":"0.0-4.0-0.22-2.22-1.22-0.22","turk_code":"lvls737x7p7l","usefulFt1":1,"usefulFt2":2,"favoredEnd1":1,"favoredEnd2":0},{"rt":118.59999990463257,"stimulus":"<div><b>Correct!</b></div><div> </div><div>Press any key to continue</div>","response":0,"first":"other","answer":0,"name":"Theresa","otherName":"Danielle","namedWug":[1,1,1,0],"otherWug":[0,0,0,1],"trial_type":"html-keyboard-response","trial_index":79,"time_elapsed":129427,"internal_node_id":"0.0-4.0-0.22-2.22-1.22-1.22","turk_code":"lvls737x7p7l","usefulFt1":1,"usefulFt2":2,"favoredEnd1":1,"favoredEnd2":0},{"rt":858.8999998569489,"response":0,"namedWug":[1,1,0,0],"otherWug":[1,1,1,0],"name":"Wayne","otherName":"Theresa","left":1,"trial_type":"canvas-button-response","trial_index":80,"time_elapsed":130287,"internal_node_id":"0.0-4.0-0.23-0.23","turk_code":"lvls737x7p7l","usefulFt1":1,"usefulFt2":2,"favoredEnd1":1,"favoredEnd2":0,"correct":true},{"rt":779.0999999046326,"response":0,"name":"Wayne","otherName":"Theresa","namedWug":[1,1,0,0],"otherWug":[1,1,1,0],"trialCorrect":true,"trial_type":"canvas-button-response","trial_index":81,"time_elapsed":131068,"internal_node_id":"0.0-4.0-0.23-1.23","turk_code":"lvls737x7p7l","usefulFt1":1,"usefulFt2":2,"favoredEnd1":1,"favoredEnd2":0},{"rt":1019.2000000476837,"response":0,"namedWug":[0,0,1,1],"otherWug":[1,1,0,0],"name":"Beverly","otherName":"Wayne","left":1,"trial_type":"canvas-button-response","trial_index":82,"time_elapsed":132088,"internal_node_id":"0.0-4.0-0.24-0.24","turk_code":"lvls737x7p7l","usefulFt1":1,"usefulFt2":2,"favoredEnd1":1,"favoredEnd2":0,"correct":true},{"rt":1270.5,"response":0,"name":"Beverly","otherName":"Wayne","namedWug":[0,0,1,1],"otherWug":[1,1,0,0],"trialCorrect":true,"trial_type":"canvas-button-response","trial_index":83,"time_elapsed":133360,"internal_node_id":"0.0-4.0-0.24-1.24","turk_code":"lvls737x7p7l","usefulFt1":1,"usefulFt2":2,"favoredEnd1":1,"favoredEnd2":0},{"rt":1253,"response":0,"namedWug":[0,0,0,1],"otherWug":[1,1,1,0],"name":"Danielle","otherName":"Theresa","left":1,"trial_type":"canvas-button-response","trial_index":84,"time_elapsed":134615,"internal_node_id":"0.0-4.0-0.25-0.25","turk_code":"lvls737x7p7l","usefulFt1":1,"usefulFt2":2,"favoredEnd1":1,"favoredEnd2":0,"correct":true},{"rt":985.2000000476837,"response":0,"name":"Danielle","otherName":"Theresa","namedWug":[0,0,0,1],"otherWug":[1,1,1,0],"trialCorrect":true,"trial_type":"canvas-button-response","trial_index":85,"time_elapsed":135602,"internal_node_id":"0.0-4.0-0.25-1.25","turk_code":"lvls737x7p7l","usefulFt1":1,"usefulFt2":2,"favoredEnd1":1,"favoredEnd2":0},{"rt":2314.600000143051,"response":1,"namedWug":[1,0,1,0],"otherWug":[0,1,0,1],"name":"Doris","otherName":"Kayla","left":0,"trial_type":"canvas-button-response","trial_index":86,"time_elapsed":137918,"internal_node_id":"0.0-4.0-0.26-0.26","turk_code":"lvls737x7p7l","usefulFt1":1,"usefulFt2":2,"favoredEnd1":1,"favoredEnd2":0,"correct":true},{"rt":1775.3999998569489,"response":0,"name":"Doris","otherName":"Kayla","namedWug":[1,0,1,0],"otherWug":[0,1,0,1],"trialCorrect":true,"trial_type":"canvas-button-response","trial_index":87,"time_elapsed":139695,"internal_node_id":"0.0-4.0-0.26-1.26","turk_code":"lvls737x7p7l","usefulFt1":1,"usefulFt2":2,"favoredEnd1":1,"favoredEnd2":0},{"rt":2999,"response":0,"namedWug":[1,0,0,0],"otherWug":[1,0,1,0],"name":"Vincent","otherName":"Doris","left":0,"trial_type":"canvas-button-response","trial_index":88,"time_elapsed":142696,"internal_node_id":"0.0-4.0-0.27-0.27","turk_code":"lvls737x7p7l","usefulFt1":1,"usefulFt2":2,"favoredEnd1":1,"favoredEnd2":0,"correct":false},{"rt":986,"response":0,"name":"Vincent","otherName":"Doris","namedWug":[1,0,0,0],"otherWug":[1,0,1,0],"trialCorrect":false,"trial_type":"canvas-button-response","trial_index":89,"time_elapsed":143683,"internal_node_id":"0.0-4.0-0.27-1.27","turk_code":"lvls737x7p7l","usefulFt1":1,"usefulFt2":2,"favoredEnd1":1,"favoredEnd2":0},{"rt":1474.7999999523163,"response":1,"first":"named","answer":0,"name":"Vincent","otherName":"Doris","namedWug":[1,0,0,0],"otherWug":[1,0,1,0],"trial_type":"canvas-button-response","trial_index":90,"time_elapsed":145160,"internal_node_id":"0.0-4.0-0.27-2.27-0.28-0.28","turk_code":"lvls737x7p7l","usefulFt1":1,"usefulFt2":2,"favoredEnd1":1,"favoredEnd2":0},{"rt":347.5,"stimulus":"<div><b>Incorrect!</b></div><div> </div><div>Press any key to try again</div>","response":1,"first":"named","answer":0,"name":"Vincent","otherName":"Doris","namedWug":[1,0,0,0],"otherWug":[1,0,1,0],"trial_type":"html-keyboard-response","trial_index":91,"time_elapsed":145509,"internal_node_id":"0.0-4.0-0.27-2.27-0.28-1.28","turk_code":"lvls737x7p7l","usefulFt1":1,"usefulFt2":2,"favoredEnd1":1,"favoredEnd2":0},{"rt":502.40000009536743,"response":0,"first":"named","answer":0,"name":"Vincent","otherName":"Doris","namedWug":[1,0,0,0],"otherWug":[1,0,1,0],"trial_type":"canvas-button-response","trial_index":92,"time_elapsed":146012,"internal_node_id":"0.0-4.0-0.27-2.27-0.29-0.29","turk_code":"lvls737x7p7l","usefulFt1":1,"usefulFt2":2,"favoredEnd1":1,"favoredEnd2":0},{"rt":127.20000004768372,"stimulus":"<div><b>Correct!</b></div><div> </div><div>Press any key to continue</div>","response":0,"first":"named","answer":0,"name":"Vincent","otherName":"Doris","namedWug":[1,0,0,0],"otherWug":[1,0,1,0],"trial_type":"html-keyboard-response","trial_index":93,"time_elapsed":146140,"internal_node_id":"0.0-4.0-0.27-2.27-0.29-1.29","turk_code":"lvls737x7p7l","usefulFt1":1,"usefulFt2":2,"favoredEnd1":1,"favoredEnd2":0},{"rt":827.1999998092651,"response":1,"first":"named","answer":1,"name":"Vincent","otherName":"Doris","namedWug":[1,0,0,0],"otherWug":[1,0,1,0],"trial_type":"canvas-button-response","trial_index":94,"time_elapsed":146969,"internal_node_id":"0.0-4.0-0.27-2.27-1.27-0.27","turk_code":"lvls737x7p7l","usefulFt1":1,"usefulFt2":2,"favoredEnd1":1,"favoredEnd2":0},{"rt":177.60000014305115,"stimulus":"<div><b>Correct!</b></div><div> </div><div>Press any key to continue</div>","response":1,"first":"named","answer":1,"name":"Vincent","otherName":"Doris","namedWug":[1,0,0,0],"otherWug":[1,0,1,0],"trial_type":"html-keyboard-response","trial_index":95,"time_elapsed":147147,"internal_node_id":"0.0-4.0-0.27-2.27-1.27-1.27","turk_code":"lvls737x7p7l","usefulFt1":1,"usefulFt2":2,"favoredEnd1":1,"favoredEnd2":0},{"rt":1990.7000000476837,"response":1,"namedWug":[0,1,0,1],"otherWug":[0,1,1,1],"name":"Kayla","otherName":"Ray","left":1,"trial_type":"canvas-button-response","trial_index":96,"time_elapsed":149140,"internal_node_id":"0.0-4.0-0.28-0.28","turk_code":"lvls737x7p7l","usefulFt1":1,"usefulFt2":2,"favoredEnd1":1,"favoredEnd2":0,"correct":false},{"rt":1279.0999999046326,"response":0,"name":"Kayla","otherName":"Ray","namedWug":[0,1,0,1],"otherWug":[0,1,1,1],"trialCorrect":false,"trial_type":"canvas-button-response","trial_index":97,"time_elapsed":150421,"internal_node_id":"0.0-4.0-0.28-1.28","turk_code":"lvls737x7p7l","usefulFt1":1,"usefulFt2":2,"favoredEnd1":1,"favoredEnd2":0},{"rt":1207.5,"response":0,"first":"named","answer":0,"name":"Kayla","otherName":"Ray","namedWug":[0,1,0,1],"otherWug":[0,1,1,1],"trial_type":"canvas-button-response","trial_index":98,"time_elapsed":151630,"internal_node_id":"0.0-4.0-0.28-2.28-0.30-0.30","turk_code":"lvls737x7p7l","usefulFt1":1,"usefulFt2":2,"favoredEnd1":1,"favoredEnd2":0},{"rt":384.7000000476837,"stimulus":"<div><b>Correct!</b></div><div> </div><div>Press any key to continue</div>","response":0,"first":"named","answer":0,"name":"Kayla","otherName":"Ray","namedWug":[0,1,0,1],"otherWug":[0,1,1,1],"trial_type":"html-keyboard-response","trial_index":99,"time_elapsed":152015,"internal_node_id":"0.0-4.0-0.28-2.28-0.30-1.30","turk_code":"lvls737x7p7l","usefulFt1":1,"usefulFt2":2,"favoredEnd1":1,"favoredEnd2":0},{"rt":512.9000000953674,"response":1,"first":"named","answer":1,"name":"Kayla","otherName":"Ray","namedWug":[0,1,0,1],"otherWug":[0,1,1,1],"trial_type":"canvas-button-response","trial_index":100,"time_elapsed":152530,"internal_node_id":"0.0-4.0-0.28-2.28-1.28-0.28","turk_code":"lvls737x7p7l","usefulFt1":1,"usefulFt2":2,"favoredEnd1":1,"favoredEnd2":0},{"rt":265.7999999523163,"stimulus":"<div><b>Correct!</b></div><div> </div><div>Press any key to continue</div>","response":1,"first":"named","answer":1,"name":"Kayla","otherName":"Ray","namedWug":[0,1,0,1],"otherWug":[0,1,1,1],"trial_type":"html-keyboard-response","trial_index":101,"time_elapsed":152796,"internal_node_id":"0.0-4.0-0.28-2.28-1.28-1.28","turk_code":"lvls737x7p7l","usefulFt1":1,"usefulFt2":2,"favoredEnd1":1,"favoredEnd2":0},{"rt":4208.799999952316,"response":0,"namedWug":[0,0,1,1],"otherWug":[1,1,0,0],"name":"Beverly","otherName":"Wayne","left":0,"trial_type":"canvas-button-response","trial_index":102,"time_elapsed":157007,"internal_node_id":"0.0-4.0-0.29-0.29","turk_code":"lvls737x7p7l","usefulFt1":1,"usefulFt2":2,"favoredEnd1":1,"favoredEnd2":0,"correct":false},{"rt":977.8000001907349,"response":0,"name":"Beverly","otherName":"Wayne","namedWug":[0,0,1,1],"otherWug":[1,1,0,0],"trialCorrect":false,"trial_type":"canvas-button-response","trial_index":103,"time_elapsed":157986,"internal_node_id":"0.0-4.0-0.29-1.29","turk_code":"lvls737x7p7l","usefulFt1":1,"usefulFt2":2,"favoredEnd1":1,"favoredEnd2":0},{"rt":1074.9000000953674,"response":1,"first":"other","answer":1,"name":"Beverly","otherName":"Wayne","namedWug":[0,0,1,1],"otherWug":[1,1,0,0],"trial_type":"canvas-button-response","trial_index":104,"time_elapsed":159062,"internal_node_id":"0.0-4.0-0.29-2.29-0.31-0.31","turk_code":"lvls737x7p7l","usefulFt1":1,"usefulFt2":2,"favoredEnd1":1,"favoredEnd2":0},{"rt":265.59999990463257,"stimulus":"<div><b>Correct!</b></div><div> </div><div>Press any key to continue</div>","response":1,"first":"other","answer":1,"name":"Beverly","otherName":"Wayne","namedWug":[0,0,1,1],"otherWug":[1,1,0,0],"trial_type":"html-keyboard-response","trial_index":105,"time_elapsed":159328,"internal_node_id":"0.0-4.0-0.29-2.29-0.31-1.31","turk_code":"lvls737x7p7l","usefulFt1":1,"usefulFt2":2,"favoredEnd1":1,"favoredEnd2":0},{"rt":758.4000000953674,"response":0,"first":"other","answer":0,"name":"Beverly","otherName":"Wayne","namedWug":[0,0,1,1],"otherWug":[1,1,0,0],"trial_type":"canvas-button-response","trial_index":106,"time_elapsed":160089,"internal_node_id":"0.0-4.0-0.29-2.29-1.29-0.29","turk_code":"lvls737x7p7l","usefulFt1":1,"usefulFt2":2,"favoredEnd1":1,"favoredEnd2":0},{"rt":352.60000014305115,"stimulus":"<div><b>Correct!</b></div><div> </div><div>Press any key to continue</div>","response":0,"first":"other","answer":0,"name":"Beverly","otherName":"Wayne","namedWug":[0,0,1,1],"otherWug":[1,1,0,0],"trial_type":"html-keyboard-response","trial_index":107,"time_elapsed":160442,"internal_node_id":"0.0-4.0-0.29-2.29-1.29-1.29","turk_code":"lvls737x7p7l","usefulFt1":1,"usefulFt2":2,"favoredEnd1":1,"favoredEnd2":0},{"rt":1461.1000001430511,"response":0,"namedWug":[1,1,1,0],"otherWug":[1,0,1,0],"name":"Theresa","otherName":"Doris","left":0,"trial_type":"canvas-button-response","trial_index":108,"time_elapsed":161905,"internal_node_id":"0.0-4.0-0.30-0.30","turk_code":"lvls737x7p7l","usefulFt1":1,"usefulFt2":2,"favoredEnd1":1,"favoredEnd2":0,"correct":false},{"rt":930.0999999046326,"response":0,"name":"Theresa","otherName":"Doris","namedWug":[1,1,1,0],"otherWug":[1,0,1,0],"trialCorrect":false,"trial_type":"canvas-button-response","trial_index":109,"time_elapsed":162837,"internal_node_id":"0.0-4.0-0.30-1.30","turk_code":"lvls737x7p7l","usefulFt1":1,"usefulFt2":2,"favoredEnd1":1,"favoredEnd2":0},{"rt":797.0999999046326,"response":0,"first":"named","answer":0,"name":"Theresa","otherName":"Doris","namedWug":[1,1,1,0],"otherWug":[1,0,1,0],"trial_type":"canvas-button-response","trial_index":110,"time_elapsed":163635,"internal_node_id":"0.0-4.0-0.30-2.30-0.32-0.32","turk_code":"lvls737x7p7l","usefulFt1":1,"usefulFt2":2,"favoredEnd1":1,"favoredEnd2":0},{"rt":408.10000014305115,"stimulus":"<div><b>Correct!</b></div><div> </div><div>Press any key to continue</div>","response":0,"first":"named","answer":0,"name":"Theresa","otherName":"Doris","namedWug":[1,1,1,0],"otherWug":[1,0,1,0],"trial_type":"html-keyboard-response","trial_index":111,"time_elapsed":164045,"internal_node_id":"0.0-4.0-0.30-2.30-0.32-1.32","turk_code":"lvls737x7p7l","usefulFt1":1,"usefulFt2":2,"favoredEnd1":1,"favoredEnd2":0},{"rt":684,"response":1,"first":"named","answer":1,"name":"Theresa","otherName":"Doris","namedWug":[1,1,1,0],"otherWug":[1,0,1,0],"trial_type":"canvas-button-response","trial_index":112,"time_elapsed":164731,"internal_node_id":"0.0-4.0-0.30-2.30-1.30-0.30","turk_code":"lvls737x7p7l","usefulFt1":1,"usefulFt2":2,"favoredEnd1":1,"favoredEnd2":0},{"rt":181,"stimulus":"<div><b>Correct!</b></div><div> </div><div>Press any key to continue</div>","response":1,"first":"named","answer":1,"name":"Theresa","otherName":"Doris","namedWug":[1,1,1,0],"otherWug":[1,0,1,0],"trial_type":"html-keyboard-response","trial_index":113,"time_elapsed":164913,"internal_node_id":"0.0-4.0-0.30-2.30-1.30-1.30","turk_code":"lvls737x7p7l","usefulFt1":1,"usefulFt2":2,"favoredEnd1":1,"favoredEnd2":0},{"rt":1262.2000000476837,"response":0,"namedWug":[1,0,1,0],"otherWug":[0,1,0,1],"name":"Doris","otherName":"Kayla","left":0,"trial_type":"canvas-button-response","trial_index":114,"time_elapsed":166176,"internal_node_id":"0.0-4.0-0.31-0.31","turk_code":"lvls737x7p7l","usefulFt1":1,"usefulFt2":2,"favoredEnd1":1,"favoredEnd2":0,"correct":false},{"rt":993.7999999523163,"response":0,"name":"Doris","otherName":"Kayla","namedWug":[1,0,1,0],"otherWug":[0,1,0,1],"trialCorrect":false,"trial_type":"canvas-button-response","trial_index":115,"time_elapsed":167171,"internal_node_id":"0.0-4.0-0.31-1.31","turk_code":"lvls737x7p7l","usefulFt1":1,"usefulFt2":2,"favoredEnd1":1,"favoredEnd2":0},{"rt":909.4000000953674,"response":0,"first":"named","answer":0,"name":"Doris","otherName":"Kayla","namedWug":[1,0,1,0],"otherWug":[0,1,0,1],"trial_type":"canvas-button-response","trial_index":116,"time_elapsed":168082,"internal_node_id":"0.0-4.0-0.31-2.31-0.33-0.33","turk_code":"lvls737x7p7l","usefulFt1":1,"usefulFt2":2,"favoredEnd1":1,"favoredEnd2":0},{"rt":221.39999985694885,"stimulus":"<div><b>Correct!</b></div><div> </div><div>Press any key to continue</div>","response":0,"first":"named","answer":0,"name":"Doris","otherName":"Kayla","namedWug":[1,0,1,0],"otherWug":[0,1,0,1],"trial_type":"html-keyboard-response","trial_index":117,"time_elapsed":168304,"internal_node_id":"0.0-4.0-0.31-2.31-0.33-1.33","turk_code":"lvls737x7p7l","usefulFt1":1,"usefulFt2":2,"favoredEnd1":1,"favoredEnd2":0},{"rt":1577.0999999046326,"response":1,"first":"named","answer":1,"name":"Doris","otherName":"Kayla","namedWug":[1,0,1,0],"otherWug":[0,1,0,1],"trial_type":"canvas-button-response","trial_index":118,"time_elapsed":169883,"internal_node_id":"0.0-4.0-0.31-2.31-1.31-0.31","turk_code":"lvls737x7p7l","usefulFt1":1,"usefulFt2":2,"favoredEnd1":1,"favoredEnd2":0},{"rt":555.5,"stimulus":"<div><b>Correct!</b></div><div> </div><div>Press any key to continue</div>","response":1,"first":"named","answer":1,"name":"Doris","otherName":"Kayla","namedWug":[1,0,1,0],"otherWug":[0,1,0,1],"trial_type":"html-keyboard-response","trial_index":119,"time_elapsed":170439,"internal_node_id":"0.0-4.0-0.31-2.31-1.31-1.31","turk_code":"lvls737x7p7l","usefulFt1":1,"usefulFt2":2,"favoredEnd1":1,"favoredEnd2":0},{"rt":5952.5,"response":2,"name":"Beverly","name_choices":["Danielle","Kayla","Ray","Beverly","Vincent","Doris","Wayne","Theresa"],"wug":[0,0,1,1],"names":["Beverly","Wayne","Ray","Vincent","Danielle","Theresa","Kayla","Doris"],"trial_type":"canvas-button-response","trial_index":120,"time_elapsed":176394,"internal_node_id":"0.0-4.0-1.0-0.0-0.0","turk_code":"lvls737x7p7l","usefulFt1":1,"usefulFt2":2,"favoredEnd1":1,"favoredEnd2":0},{"rt":1315.0999999046326,"response":0,"name":"Beverly","trial_type":"canvas-button-response","trial_index":121,"time_elapsed":177711,"internal_node_id":"0.0-4.0-1.0-0.0-1.0","turk_code":"lvls737x7p7l","usefulFt1":1,"usefulFt2":2,"favoredEnd1":1,"favoredEnd2":0},{"rt":3307.2999999523163,"response":4,"name":"Wayne","name_choices":["Danielle","Kayla","Ray","Beverly","Vincent","Doris","Wayne","Theresa"],"wug":[1,1,0,0],"names":["Beverly","Wayne","Ray","Vincent","Danielle","Theresa","Kayla","Doris"],"trial_type":"canvas-button-response","trial_index":122,"time_elapsed":181020,"internal_node_id":"0.0-4.0-1.0-0.1-0.1","turk_code":"lvls737x7p7l","usefulFt1":1,"usefulFt2":2,"favoredEnd1":1,"favoredEnd2":0},{"rt":727.1000001430511,"response":0,"name":"Wayne","trial_type":"canvas-button-response","trial_index":123,"time_elapsed":181749,"internal_node_id":"0.0-4.0-1.0-0.1-1.1","turk_code":"lvls737x7p7l","usefulFt1":1,"usefulFt2":2,"favoredEnd1":1,"favoredEnd2":0},{"rt":1664.7000000476837,"response":2,"name":"Ray","name_choices":["Danielle","Kayla","Ray","Beverly","Vincent","Doris","Wayne","Theresa"],"wug":[0,1,1,1],"names":["Beverly","Wayne","Ray","Vincent","Danielle","Theresa","Kayla","Doris"],"trial_type":"canvas-button-response","trial_index":124,"time_elapsed":183415,"internal_node_id":"0.0-4.0-1.0-0.2-0.2","turk_code":"lvls737x7p7l","usefulFt1":1,"usefulFt2":2,"favoredEnd1":1,"favoredEnd2":0},{"rt":919.6999998092651,"response":0,"name":"Ray","trial_type":"canvas-button-response","trial_index":125,"time_elapsed":184337,"internal_node_id":"0.0-4.0-1.0-0.2-1.2","turk_code":"lvls737x7p7l","usefulFt1":1,"usefulFt2":2,"favoredEnd1":1,"favoredEnd2":0},{"rt":899.0999999046326,"response":6,"name":"Vincent","name_choices":["Danielle","Kayla","Ray","Beverly","Vincent","Doris","Wayne","Theresa"],"wug":[1,0,0,0],"names":["Beverly","Wayne","Ray","Vincent","Danielle","Theresa","Kayla","Doris"],"trial_type":"canvas-button-response","trial_index":126,"time_elapsed":185238,"internal_node_id":"0.0-4.0-1.0-0.3-0.3","turk_code":"lvls737x7p7l","usefulFt1":1,"usefulFt2":2,"favoredEnd1":1,"favoredEnd2":0},{"rt":1041,"response":0,"name":"Vincent","trial_type":"canvas-button-response","trial_index":127,"time_elapsed":186280,"internal_node_id":"0.0-4.0-1.0-0.3-1.3","turk_code":"lvls737x7p7l","usefulFt1":1,"usefulFt2":2,"favoredEnd1":1,"favoredEnd2":0},{"rt":906.7999999523163,"response":7,"name":"Danielle","name_choices":["Danielle","Kayla","Ray","Beverly","Vincent","Doris","Wayne","Theresa"],"wug":[0,0,0,1],"names":["Beverly","Wayne","Ray","Vincent","Danielle","Theresa","Kayla","Doris"],"trial_type":"canvas-button-response","trial_index":128,"time_elapsed":187188,"internal_node_id":"0.0-4.0-1.0-0.4-0.4","turk_code":"lvls737x7p7l","usefulFt1":1,"usefulFt2":2,"favoredEnd1":1,"favoredEnd2":0},{"rt":726.2000000476837,"response":0,"name":"Danielle","trial_type":"canvas-button-response","trial_index":129,"time_elapsed":187916,"internal_node_id":"0.0-4.0-1.0-0.4-1.4","turk_code":"lvls737x7p7l","usefulFt1":1,"usefulFt2":2,"favoredEnd1":1,"favoredEnd2":0},{"rt":757.9000000953674,"response":3,"name":"Theresa","name_choices":["Danielle","Kayla","Ray","Beverly","Vincent","Doris","Wayne","Theresa"],"wug":[1,1,1,0],"names":["Beverly","Wayne","Ray","Vincent","Danielle","Theresa","Kayla","Doris"],"trial_type":"canvas-button-response","trial_index":130,"time_elapsed":188675,"internal_node_id":"0.0-4.0-1.0-0.5-0.5","turk_code":"lvls737x7p7l","usefulFt1":1,"usefulFt2":2,"favoredEnd1":1,"favoredEnd2":0},{"rt":810.9000000953674,"response":0,"name":"Theresa","trial_type":"canvas-button-response","trial_index":131,"time_elapsed":189488,"internal_node_id":"0.0-4.0-1.0-0.5-1.5","turk_code":"lvls737x7p7l","usefulFt1":1,"usefulFt2":2,"favoredEnd1":1,"favoredEnd2":0},{"rt":622.2000000476837,"response":2,"name":"Kayla","name_choices":["Danielle","Kayla","Ray","Beverly","Vincent","Doris","Wayne","Theresa"],"wug":[0,1,0,1],"names":["Beverly","Wayne","Ray","Vincent","Danielle","Theresa","Kayla","Doris"],"trial_type":"canvas-button-response","trial_index":132,"time_elapsed":190112,"internal_node_id":"0.0-4.0-1.0-0.6-0.6","turk_code":"lvls737x7p7l","usefulFt1":1,"usefulFt2":2,"favoredEnd1":1,"favoredEnd2":0},{"rt":739.3999998569489,"response":0,"name":"Kayla","trial_type":"canvas-button-response","trial_index":133,"time_elapsed":190853,"internal_node_id":"0.0-4.0-1.0-0.6-1.6","turk_code":"lvls737x7p7l","usefulFt1":1,"usefulFt2":2,"favoredEnd1":1,"favoredEnd2":0},{"rt":701.7999999523163,"response":1,"name":"Doris","name_choices":["Danielle","Kayla","Ray","Beverly","Vincent","Doris","Wayne","Theresa"],"wug":[1,0,1,0],"names":["Beverly","Wayne","Ray","Vincent","Danielle","Theresa","Kayla","Doris"],"trial_type":"canvas-button-response","trial_index":134,"time_elapsed":191557,"internal_node_id":"0.0-4.0-1.0-0.7-0.7","turk_code":"lvls737x7p7l","usefulFt1":1,"usefulFt2":2,"favoredEnd1":1,"favoredEnd2":0},{"rt":828.7000000476837,"response":0,"name":"Doris","trial_type":"canvas-button-response","trial_index":135,"time_elapsed":192387,"internal_node_id":"0.0-4.0-1.0-0.7-1.7","turk_code":"lvls737x7p7l","usefulFt1":1,"usefulFt2":2,"favoredEnd1":1,"favoredEnd2":0},{"rt":1064.6000001430511,"response":0,"namedWug":[1,1,0,0],"otherWug":[1,0,0,0],"name":"Wayne","otherName":"Vincent","left":0,"trial_type":"canvas-button-response","trial_index":136,"time_elapsed":193453,"internal_node_id":"0.0-4.1-0.32-0.32","turk_code":"lvls737x7p7l","usefulFt1":1,"usefulFt2":2,"favoredEnd1":1,"favoredEnd2":0,"correct":false},{"rt":1024.0999999046326,"response":0,"name":"Wayne","otherName":"Vincent","namedWug":[1,1,0,0],"otherWug":[1,0,0,0],"trialCorrect":false,"trial_type":"canvas-button-response","trial_index":137,"time_elapsed":194479,"internal_node_id":"0.0-4.1-0.32-1.32","turk_code":"lvls737x7p7l","usefulFt1":1,"usefulFt2":2,"favoredEnd1":1,"favoredEnd2":0},{"rt":866.8999998569489,"response":0,"first":"named","answer":0,"name":"Wayne","otherName":"Vincent","namedWug":[1,1,0,0],"otherWug":[1,0,0,0],"trial_type":"canvas-button-response","trial_index":138,"time_elapsed":195347,"internal_node_id":"0.0-4.1-0.32-2.32-0.34-0.34","turk_code":"lvls737x7p7l","usefulFt1":1,"usefulFt2":2,"favoredEnd1":1,"favoredEnd2":0},{"rt":354.5,"stimulus":"<div><b>Correct!</b></div><div> </div><div>Press any key to continue</div>","response":0,"first":"named","answer":0,"name":"Wayne","otherName":"Vincent","namedWug":[1,1,0,0],"otherWug":[1,0,0,0],"trial_type":"html-keyboard-response","trial_index":139,"time_elapsed":195702,"internal_node_id":"0.0-4.1-0.32-2.32-0.34-1.34","turk_code":"lvls737x7p7l","usefulFt1":1,"usefulFt2":2,"favoredEnd1":1,"favoredEnd2":0},{"rt":670.4000000953674,"response":1,"first":"named","answer":1,"name":"Wayne","otherName":"Vincent","namedWug":[1,1,0,0],"otherWug":[1,0,0,0],"trial_type":"canvas-button-response","trial_index":140,"time_elapsed":196374,"internal_node_id":"0.0-4.1-0.32-2.32-1.32-0.32","turk_code":"lvls737x7p7l","usefulFt1":1,"usefulFt2":2,"favoredEnd1":1,"favoredEnd2":0},{"rt":318.2000000476837,"stimulus":"<div><b>Correct!</b></div><div> </div><div>Press any key to continue</div>","response":1,"first":"named","answer":1,"name":"Wayne","otherName":"Vincent","namedWug":[1,1,0,0],"otherWug":[1,0,0,0],"trial_type":"html-keyboard-response","trial_index":141,"time_elapsed":196693,"internal_node_id":"0.0-4.1-0.32-2.32-1.32-1.32","turk_code":"lvls737x7p7l","usefulFt1":1,"usefulFt2":2,"favoredEnd1":1,"favoredEnd2":0},{"rt":1157.7000000476837,"response":1,"namedWug":[0,0,0,1],"otherWug":[0,0,1,1],"name":"Danielle","otherName":"Beverly","left":0,"trial_type":"canvas-button-response","trial_index":142,"time_elapsed":197852,"internal_node_id":"0.0-4.1-0.33-0.33","turk_code":"lvls737x7p7l","usefulFt1":1,"usefulFt2":2,"favoredEnd1":1,"favoredEnd2":0,"correct":true},{"rt":914.5,"response":0,"name":"Danielle","otherName":"Beverly","namedWug":[0,0,0,1],"otherWug":[0,0,1,1],"trialCorrect":true,"trial_type":"canvas-button-response","trial_index":143,"time_elapsed":198768,"internal_node_id":"0.0-4.1-0.33-1.33","turk_code":"lvls737x7p7l","usefulFt1":1,"usefulFt2":2,"favoredEnd1":1,"favoredEnd2":0},{"rt":740.4000000953674,"response":0,"namedWug":[1,0,0,0],"otherWug":[0,1,1,1],"name":"Vincent","otherName":"Ray","left":0,"trial_type":"canvas-button-response","trial_index":144,"time_elapsed":199510,"internal_node_id":"0.0-4.1-0.34-0.34","turk_code":"lvls737x7p7l","usefulFt1":1,"usefulFt2":2,"favoredEnd1":1,"favoredEnd2":0,"correct":false},{"rt":867.2999999523163,"response":0,"name":"Vincent","otherName":"Ray","namedWug":[1,0,0,0],"otherWug":[0,1,1,1],"trialCorrect":false,"trial_type":"canvas-button-response","trial_index":145,"time_elapsed":200380,"internal_node_id":"0.0-4.1-0.34-1.34","turk_code":"lvls737x7p7l","usefulFt1":1,"usefulFt2":2,"favoredEnd1":1,"favoredEnd2":0},{"rt":1223.3000001907349,"response":1,"first":"other","answer":1,"name":"Vincent","otherName":"Ray","namedWug":[1,0,0,0],"otherWug":[0,1,1,1],"trial_type":"canvas-button-response","trial_index":146,"time_elapsed":201605,"internal_node_id":"0.0-4.1-0.34-2.34-0.36-0.36","turk_code":"lvls737x7p7l","usefulFt1":1,"usefulFt2":2,"favoredEnd1":1,"favoredEnd2":0},{"rt":193.30000019073486,"stimulus":"<div><b>Correct!</b></div><div> </div><div>Press any key to continue</div>","response":1,"first":"other","answer":1,"name":"Vincent","otherName":"Ray","namedWug":[1,0,0,0],"otherWug":[0,1,1,1],"trial_type":"html-keyboard-response","trial_index":147,"time_elapsed":201800,"internal_node_id":"0.0-4.1-0.34-2.34-0.36-1.36","turk_code":"lvls737x7p7l","usefulFt1":1,"usefulFt2":2,"favoredEnd1":1,"favoredEnd2":0},{"rt":900.8999998569489,"response":0,"first":"other","answer":0,"name":"Vincent","otherName":"Ray","namedWug":[1,0,0,0],"otherWug":[0,1,1,1],"trial_type":"canvas-button-response","trial_index":148,"time_elapsed":202702,"internal_node_id":"0.0-4.1-0.34-2.34-1.34-0.34","turk_code":"lvls737x7p7l","usefulFt1":1,"usefulFt2":2,"favoredEnd1":1,"favoredEnd2":0},{"rt":320,"stimulus":"<div><b>Correct!</b></div><div> </div><div>Press any key to continue</div>","response":0,"first":"other","answer":0,"name":"Vincent","otherName":"Ray","namedWug":[1,0,0,0],"otherWug":[0,1,1,1],"trial_type":"html-keyboard-response","trial_index":149,"time_elapsed":203023,"internal_node_id":"0.0-4.1-0.34-2.34-1.34-1.34","turk_code":"lvls737x7p7l","usefulFt1":1,"usefulFt2":2,"favoredEnd1":1,"favoredEnd2":0},{"rt":742,"response":0,"namedWug":[0,1,1,1],"otherWug":[1,0,0,0],"name":"Ray","otherName":"Vincent","left":1,"trial_type":"canvas-button-response","trial_index":150,"time_elapsed":203767,"internal_node_id":"0.0-4.1-0.35-0.35","turk_code":"lvls737x7p7l","usefulFt1":1,"usefulFt2":2,"favoredEnd1":1,"favoredEnd2":0,"correct":true},{"rt":6343.399999856949,"response":0,"name":"Ray","otherName":"Vincent","namedWug":[0,1,1,1],"otherWug":[1,0,0,0],"trialCorrect":true,"trial_type":"canvas-button-response","trial_index":151,"time_elapsed":210112,"internal_node_id":"0.0-4.1-0.35-1.35","turk_code":"lvls737x7p7l","usefulFt1":1,"usefulFt2":2,"favoredEnd1":1,"favoredEnd2":0},{"rt":1908.5,"response":0,"namedWug":[0,1,0,1],"otherWug":[0,0,0,1],"name":"Kayla","otherName":"Danielle","left":1,"trial_type":"canvas-button-response","trial_index":152,"time_elapsed":212022,"internal_node_id":"0.0-4.1-0.36-0.36","turk_code":"lvls737x7p7l","usefulFt1":1,"usefulFt2":2,"favoredEnd1":1,"favoredEnd2":0,"correct":true},{"rt":747.0999999046326,"response":0,"name":"Kayla","otherName":"Danielle","namedWug":[0,1,0,1],"otherWug":[0,0,0,1],"trialCorrect":true,"trial_type":"canvas-button-response","trial_index":153,"time_elapsed":212771,"internal_node_id":"0.0-4.1-0.36-1.36","turk_code":"lvls737x7p7l","usefulFt1":1,"usefulFt2":2,"favoredEnd1":1,"favoredEnd2":0},{"rt":1786.2000000476837,"response":1,"namedWug":[0,1,1,1],"otherWug":[0,0,1,1],"name":"Ray","otherName":"Beverly","left":0,"trial_type":"canvas-button-response","trial_index":154,"time_elapsed":214558,"internal_node_id":"0.0-4.1-0.37-0.37","turk_code":"lvls737x7p7l","usefulFt1":1,"usefulFt2":2,"favoredEnd1":1,"favoredEnd2":0,"correct":true},{"rt":1523.0999999046326,"response":0,"name":"Ray","otherName":"Beverly","namedWug":[0,1,1,1],"otherWug":[0,0,1,1],"trialCorrect":true,"trial_type":"canvas-button-response","trial_index":155,"time_elapsed":216083,"internal_node_id":"0.0-4.1-0.37-1.37","turk_code":"lvls737x7p7l","usefulFt1":1,"usefulFt2":2,"favoredEnd1":1,"favoredEnd2":0},{"rt":2302.2000000476837,"response":1,"namedWug":[1,1,1,0],"otherWug":[0,0,0,1],"name":"Theresa","otherName":"Danielle","left":1,"trial_type":"canvas-button-response","trial_index":156,"time_elapsed":218388,"internal_node_id":"0.0-4.1-0.38-0.38","turk_code":"lvls737x7p7l","usefulFt1":1,"usefulFt2":2,"favoredEnd1":1,"favoredEnd2":0,"correct":false},{"rt":978.8999998569489,"response":0,"name":"Theresa","otherName":"Danielle","namedWug":[1,1,1,0],"otherWug":[0,0,0,1],"trialCorrect":false,"trial_type":"canvas-button-response","trial_index":157,"time_elapsed":219368,"internal_node_id":"0.0-4.1-0.38-1.38","turk_code":"lvls737x7p7l","usefulFt1":1,"usefulFt2":2,"favoredEnd1":1,"favoredEnd2":0},{"rt":875.5999999046326,"response":0,"first":"named","answer":0,"name":"Theresa","otherName":"Danielle","namedWug":[1,1,1,0],"otherWug":[0,0,0,1],"trial_type":"canvas-button-response","trial_index":158,"time_elapsed":220245,"internal_node_id":"0.0-4.1-0.38-2.38-0.40-0.40","turk_code":"lvls737x7p7l","usefulFt1":1,"usefulFt2":2,"favoredEnd1":1,"favoredEnd2":0},{"rt":212.60000014305115,"stimulus":"<div><b>Correct!</b></div><div> </div><div>Press any key to continue</div>","response":0,"first":"named","answer":0,"name":"Theresa","otherName":"Danielle","namedWug":[1,1,1,0],"otherWug":[0,0,0,1],"trial_type":"html-keyboard-response","trial_index":159,"time_elapsed":220459,"internal_node_id":"0.0-4.1-0.38-2.38-0.40-1.40","turk_code":"lvls737x7p7l","usefulFt1":1,"usefulFt2":2,"favoredEnd1":1,"favoredEnd2":0},{"rt":846.0999999046326,"response":1,"first":"named","answer":1,"name":"Theresa","otherName":"Danielle","namedWug":[1,1,1,0],"otherWug":[0,0,0,1],"trial_type":"canvas-button-response","trial_index":160,"time_elapsed":221306,"internal_node_id":"0.0-4.1-0.38-2.38-1.38-0.38","turk_code":"lvls737x7p7l","usefulFt1":1,"usefulFt2":2,"favoredEnd1":1,"favoredEnd2":0},{"rt":283.39999985694885,"stimulus":"<div><b>Correct!</b></div><div> </div><div>Press any key to continue</div>","response":1,"first":"named","answer":1,"name":"Theresa","otherName":"Danielle","namedWug":[1,1,1,0],"otherWug":[0,0,0,1],"trial_type":"html-keyboard-response","trial_index":161,"time_elapsed":221591,"internal_node_id":"0.0-4.1-0.38-2.38-1.38-1.38","turk_code":"lvls737x7p7l","usefulFt1":1,"usefulFt2":2,"favoredEnd1":1,"favoredEnd2":0},{"rt":2515.2000000476837,"response":0,"namedWug":[1,1,0,0],"otherWug":[1,1,1,0],"name":"Wayne","otherName":"Theresa","left":1,"trial_type":"canvas-button-response","trial_index":162,"time_elapsed":224108,"internal_node_id":"0.0-4.1-0.39-0.39","turk_code":"lvls737x7p7l","usefulFt1":1,"usefulFt2":2,"favoredEnd1":1,"favoredEnd2":0,"correct":true},{"rt":913.2000000476837,"response":0,"name":"Wayne","otherName":"Theresa","namedWug":[1,1,0,0],"otherWug":[1,1,1,0],"trialCorrect":true,"trial_type":"canvas-button-response","trial_index":163,"time_elapsed":225023,"internal_node_id":"0.0-4.1-0.39-1.39","turk_code":"lvls737x7p7l","usefulFt1":1,"usefulFt2":2,"favoredEnd1":1,"favoredEnd2":0},{"rt":5172.300000190735,"response":0,"namedWug":[0,0,1,1],"otherWug":[1,1,0,0],"name":"Beverly","otherName":"Wayne","left":1,"trial_type":"canvas-button-response","trial_index":164,"time_elapsed":230197,"internal_node_id":"0.0-4.1-0.40-0.40","turk_code":"lvls737x7p7l","usefulFt1":1,"usefulFt2":2,"favoredEnd1":1,"favoredEnd2":0,"correct":true},{"rt":827.5999999046326,"response":0,"name":"Beverly","otherName":"Wayne","namedWug":[0,0,1,1],"otherWug":[1,1,0,0],"trialCorrect":true,"trial_type":"canvas-button-response","trial_index":165,"time_elapsed":231026,"internal_node_id":"0.0-4.1-0.40-1.40","turk_code":"lvls737x7p7l","usefulFt1":1,"usefulFt2":2,"favoredEnd1":1,"favoredEnd2":0},{"rt":1608.2999999523163,"response":1,"namedWug":[0,0,0,1],"otherWug":[1,1,1,0],"name":"Danielle","otherName":"Theresa","left":0,"trial_type":"canvas-button-response","trial_index":166,"time_elapsed":232636,"internal_node_id":"0.0-4.1-0.41-0.41","turk_code":"lvls737x7p7l","usefulFt1":1,"usefulFt2":2,"favoredEnd1":1,"favoredEnd2":0,"correct":true},{"rt":1112.1000001430511,"response":0,"name":"Danielle","otherName":"Theresa","namedWug":[0,0,0,1],"otherWug":[1,1,1,0],"trialCorrect":true,"trial_type":"canvas-button-response","trial_index":167,"time_elapsed":233749,"internal_node_id":"0.0-4.1-0.41-1.41","turk_code":"lvls737x7p7l","usefulFt1":1,"usefulFt2":2,"favoredEnd1":1,"favoredEnd2":0},{"rt":1941.4000000953674,"response":0,"namedWug":[1,0,1,0],"otherWug":[0,1,0,1],"name":"Doris","otherName":"Kayla","left":1,"trial_type":"canvas-button-response","trial_index":168,"time_elapsed":235692,"internal_node_id":"0.0-4.1-0.42-0.42","turk_code":"lvls737x7p7l","usefulFt1":1,"usefulFt2":2,"favoredEnd1":1,"favoredEnd2":0,"correct":true},{"rt":1357.2999999523163,"response":0,"name":"Doris","otherName":"Kayla","namedWug":[1,0,1,0],"otherWug":[0,1,0,1],"trialCorrect":true,"trial_type":"canvas-button-response","trial_index":169,"time_elapsed":237051,"internal_node_id":"0.0-4.1-0.42-1.42","turk_code":"lvls737x7p7l","usefulFt1":1,"usefulFt2":2,"favoredEnd1":1,"favoredEnd2":0},{"rt":4358.899999856949,"response":0,"namedWug":[1,0,0,0],"otherWug":[1,0,1,0],"name":"Vincent","otherName":"Doris","left":1,"trial_type":"canvas-button-response","trial_index":170,"time_elapsed":241411,"internal_node_id":"0.0-4.1-0.43-0.43","turk_code":"lvls737x7p7l","usefulFt1":1,"usefulFt2":2,"favoredEnd1":1,"favoredEnd2":0,"correct":true},{"rt":1136.2000000476837,"response":0,"name":"Vincent","otherName":"Doris","namedWug":[1,0,0,0],"otherWug":[1,0,1,0],"trialCorrect":true,"trial_type":"canvas-button-response","trial_index":171,"time_elapsed":242548,"internal_node_id":"0.0-4.1-0.43-1.43","turk_code":"lvls737x7p7l","usefulFt1":1,"usefulFt2":2,"favoredEnd1":1,"favoredEnd2":0},{"rt":3332.2999999523163,"response":0,"namedWug":[0,1,0,1],"otherWug":[0,1,1,1],"name":"Kayla","otherName":"Ray","left":1,"trial_type":"canvas-button-response","trial_index":172,"time_elapsed":245884,"internal_node_id":"0.0-4.1-0.44-0.44","turk_code":"lvls737x7p7l","usefulFt1":1,"usefulFt2":2,"favoredEnd1":1,"favoredEnd2":0,"correct":true},{"rt":826.5999999046326,"response":0,"name":"Kayla","otherName":"Ray","namedWug":[0,1,0,1],"otherWug":[0,1,1,1],"trialCorrect":true,"trial_type":"canvas-button-response","trial_index":173,"time_elapsed":246712,"internal_node_id":"0.0-4.1-0.44-1.44","turk_code":"lvls737x7p7l","usefulFt1":1,"usefulFt2":2,"favoredEnd1":1,"favoredEnd2":0},{"rt":2859.7999999523163,"response":0,"namedWug":[0,0,1,1],"otherWug":[1,1,0,0],"name":"Beverly","otherName":"Wayne","left":1,"trial_type":"canvas-button-response","trial_index":174,"time_elapsed":249573,"internal_node_id":"0.0-4.1-0.45-0.45","turk_code":"lvls737x7p7l","usefulFt1":1,"usefulFt2":2,"favoredEnd1":1,"favoredEnd2":0,"correct":true},{"rt":786.8999998569489,"response":0,"name":"Beverly","otherName":"Wayne","namedWug":[0,0,1,1],"otherWug":[1,1,0,0],"trialCorrect":true,"trial_type":"canvas-button-response","trial_index":175,"time_elapsed":250362,"internal_node_id":"0.0-4.1-0.45-1.45","turk_code":"lvls737x7p7l","usefulFt1":1,"usefulFt2":2,"favoredEnd1":1,"favoredEnd2":0},{"rt":2139.800000190735,"response":0,"namedWug":[1,1,1,0],"otherWug":[1,0,1,0],"name":"Theresa","otherName":"Doris","left":0,"trial_type":"canvas-button-response","trial_index":176,"time_elapsed":252503,"internal_node_id":"0.0-4.1-0.46-0.46","turk_code":"lvls737x7p7l","usefulFt1":1,"usefulFt2":2,"favoredEnd1":1,"favoredEnd2":0,"correct":false},{"rt":968.2000000476837,"response":0,"name":"Theresa","otherName":"Doris","namedWug":[1,1,1,0],"otherWug":[1,0,1,0],"trialCorrect":false,"trial_type":"canvas-button-response","trial_index":177,"time_elapsed":253473,"internal_node_id":"0.0-4.1-0.46-1.46","turk_code":"lvls737x7p7l","usefulFt1":1,"usefulFt2":2,"favoredEnd1":1,"favoredEnd2":0},{"rt":971.5999999046326,"response":1,"first":"other","answer":1,"name":"Theresa","otherName":"Doris","namedWug":[1,1,1,0],"otherWug":[1,0,1,0],"trial_type":"canvas-button-response","trial_index":178,"time_elapsed":254446,"internal_node_id":"0.0-4.1-0.46-2.46-0.48-0.48","turk_code":"lvls737x7p7l","usefulFt1":1,"usefulFt2":2,"favoredEnd1":1,"favoredEnd2":0},{"rt":241.59999990463257,"stimulus":"<div><b>Correct!</b></div><div> </div><div>Press any key to continue</div>","response":1,"first":"other","answer":1,"name":"Theresa","otherName":"Doris","namedWug":[1,1,1,0],"otherWug":[1,0,1,0],"trial_type":"html-keyboard-response","trial_index":179,"time_elapsed":254689,"internal_node_id":"0.0-4.1-0.46-2.46-0.48-1.48","turk_code":"lvls737x7p7l","usefulFt1":1,"usefulFt2":2,"favoredEnd1":1,"favoredEnd2":0},{"rt":615.7999999523163,"response":0,"first":"other","answer":0,"name":"Theresa","otherName":"Doris","namedWug":[1,1,1,0],"otherWug":[1,0,1,0],"trial_type":"canvas-button-response","trial_index":180,"time_elapsed":255306,"internal_node_id":"0.0-4.1-0.46-2.46-1.46-0.46","turk_code":"lvls737x7p7l","usefulFt1":1,"usefulFt2":2,"favoredEnd1":1,"favoredEnd2":0},{"rt":38.40000009536743,"stimulus":"<div><b>Correct!</b></div><div> </div><div>Press any key to continue</div>","response":0,"first":"other","answer":0,"name":"Theresa","otherName":"Doris","namedWug":[1,1,1,0],"otherWug":[1,0,1,0],"trial_type":"html-keyboard-response","trial_index":181,"time_elapsed":255346,"internal_node_id":"0.0-4.1-0.46-2.46-1.46-1.46","turk_code":"lvls737x7p7l","usefulFt1":1,"usefulFt2":2,"favoredEnd1":1,"favoredEnd2":0},{"rt":2472.5999999046326,"response":0,"namedWug":[1,0,1,0],"otherWug":[0,1,0,1],"name":"Doris","otherName":"Kayla","left":1,"trial_type":"canvas-button-response","trial_index":182,"time_elapsed":257819,"internal_node_id":"0.0-4.1-0.47-0.47","turk_code":"lvls737x7p7l","usefulFt1":1,"usefulFt2":2,"favoredEnd1":1,"favoredEnd2":0,"correct":true},{"rt":850.7000000476837,"response":0,"name":"Doris","otherName":"Kayla","namedWug":[1,0,1,0],"otherWug":[0,1,0,1],"trialCorrect":true,"trial_type":"canvas-button-response","trial_index":183,"time_elapsed":258672,"internal_node_id":"0.0-4.1-0.47-1.47","turk_code":"lvls737x7p7l","usefulFt1":1,"usefulFt2":2,"favoredEnd1":1,"favoredEnd2":0},{"rt":1782.8000001907349,"response":0,"namedWug":[1,1,0,0],"otherWug":[1,0,0,0],"name":"Wayne","otherName":"Vincent","left":1,"trial_type":"canvas-button-response","trial_index":184,"time_elapsed":260456,"internal_node_id":"0.0-4.1-0.48-0.48","turk_code":"lvls737x7p7l","usefulFt1":1,"usefulFt2":2,"favoredEnd1":1,"favoredEnd2":0,"correct":true},{"rt":1388.7999999523163,"response":0,"name":"Wayne","otherName":"Vincent","namedWug":[1,1,0,0],"otherWug":[1,0,0,0],"trialCorrect":true,"trial_type":"canvas-button-response","trial_index":185,"time_elapsed":261846,"internal_node_id":"0.0-4.1-0.48-1.48","turk_code":"lvls737x7p7l","usefulFt1":1,"usefulFt2":2,"favoredEnd1":1,"favoredEnd2":0},{"rt":1729,"response":0,"namedWug":[0,0,0,1],"otherWug":[0,0,1,1],"name":"Danielle","otherName":"Beverly","left":1,"trial_type":"canvas-button-response","trial_index":186,"time_elapsed":263576,"internal_node_id":"0.0-4.1-0.49-0.49","turk_code":"lvls737x7p7l","usefulFt1":1,"usefulFt2":2,"favoredEnd1":1,"favoredEnd2":0,"correct":true},{"rt":939.8000001907349,"response":0,"name":"Danielle","otherName":"Beverly","namedWug":[0,0,0,1],"otherWug":[0,0,1,1],"trialCorrect":true,"trial_type":"canvas-button-response","trial_index":187,"time_elapsed":264517,"internal_node_id":"0.0-4.1-0.49-1.49","turk_code":"lvls737x7p7l","usefulFt1":1,"usefulFt2":2,"favoredEnd1":1,"favoredEnd2":0},{"rt":1245.2999999523163,"response":0,"namedWug":[1,0,0,0],"otherWug":[0,1,1,1],"name":"Vincent","otherName":"Ray","left":1,"trial_type":"canvas-button-response","trial_index":188,"time_elapsed":265764,"internal_node_id":"0.0-4.1-0.50-0.50","turk_code":"lvls737x7p7l","usefulFt1":1,"usefulFt2":2,"favoredEnd1":1,"favoredEnd2":0,"correct":true},{"rt":758.5,"response":0,"name":"Vincent","otherName":"Ray","namedWug":[1,0,0,0],"otherWug":[0,1,1,1],"trialCorrect":true,"trial_type":"canvas-button-response","trial_index":189,"time_elapsed":266524,"internal_node_id":"0.0-4.1-0.50-1.50","turk_code":"lvls737x7p7l","usefulFt1":1,"usefulFt2":2,"favoredEnd1":1,"favoredEnd2":0},{"rt":1562.6000001430511,"response":0,"namedWug":[0,1,1,1],"otherWug":[1,0,0,0],"name":"Ray","otherName":"Vincent","left":1,"trial_type":"canvas-button-response","trial_index":190,"time_elapsed":268088,"internal_node_id":"0.0-4.1-0.51-0.51","turk_code":"lvls737x7p7l","usefulFt1":1,"usefulFt2":2,"favoredEnd1":1,"favoredEnd2":0,"correct":true},{"rt":961.2000000476837,"response":0,"name":"Ray","otherName":"Vincent","namedWug":[0,1,1,1],"otherWug":[1,0,0,0],"trialCorrect":true,"trial_type":"canvas-button-response","trial_index":191,"time_elapsed":269051,"internal_node_id":"0.0-4.1-0.51-1.51","turk_code":"lvls737x7p7l","usefulFt1":1,"usefulFt2":2,"favoredEnd1":1,"favoredEnd2":0},{"rt":2398.4000000953674,"response":0,"namedWug":[0,1,0,1],"otherWug":[0,0,0,1],"name":"Kayla","otherName":"Danielle","left":1,"trial_type":"canvas-button-response","trial_index":192,"time_elapsed":271451,"internal_node_id":"0.0-4.1-0.52-0.52","turk_code":"lvls737x7p7l","usefulFt1":1,"usefulFt2":2,"favoredEnd1":1,"favoredEnd2":0,"correct":true},{"rt":948.6999998092651,"response":0,"name":"Kayla","otherName":"Danielle","namedWug":[0,1,0,1],"otherWug":[0,0,0,1],"trialCorrect":true,"trial_type":"canvas-button-response","trial_index":193,"time_elapsed":272402,"internal_node_id":"0.0-4.1-0.52-1.52","turk_code":"lvls737x7p7l","usefulFt1":1,"usefulFt2":2,"favoredEnd1":1,"favoredEnd2":0},{"rt":2988.7000000476837,"response":0,"namedWug":[0,1,1,1],"otherWug":[0,0,1,1],"name":"Ray","otherName":"Beverly","left":1,"trial_type":"canvas-button-response","trial_index":194,"time_elapsed":275393,"internal_node_id":"0.0-4.1-0.53-0.53","turk_code":"lvls737x7p7l","usefulFt1":1,"usefulFt2":2,"favoredEnd1":1,"favoredEnd2":0,"correct":true},{"rt":771.5,"response":0,"name":"Ray","otherName":"Beverly","namedWug":[0,1,1,1],"otherWug":[0,0,1,1],"trialCorrect":true,"trial_type":"canvas-button-response","trial_index":195,"time_elapsed":276166,"internal_node_id":"0.0-4.1-0.53-1.53","turk_code":"lvls737x7p7l","usefulFt1":1,"usefulFt2":2,"favoredEnd1":1,"favoredEnd2":0},{"rt":3878.5999999046326,"response":0,"namedWug":[1,1,1,0],"otherWug":[0,0,0,1],"name":"Theresa","otherName":"Danielle","left":0,"trial_type":"canvas-button-response","trial_index":196,"time_elapsed":280046,"internal_node_id":"0.0-4.1-0.54-0.54","turk_code":"lvls737x7p7l","usefulFt1":1,"usefulFt2":2,"favoredEnd1":1,"favoredEnd2":0,"correct":false},{"rt":834.8999998569489,"response":0,"name":"Theresa","otherName":"Danielle","namedWug":[1,1,1,0],"otherWug":[0,0,0,1],"trialCorrect":false,"trial_type":"canvas-button-response","trial_index":197,"time_elapsed":280882,"internal_node_id":"0.0-4.1-0.54-1.54","turk_code":"lvls737x7p7l","usefulFt1":1,"usefulFt2":2,"favoredEnd1":1,"favoredEnd2":0},{"rt":909.0999999046326,"response":0,"first":"other","answer":1,"name":"Theresa","otherName":"Danielle","namedWug":[1,1,1,0],"otherWug":[0,0,0,1],"trial_type":"canvas-button-response","trial_index":198,"time_elapsed":281793,"internal_node_id":"0.0-4.1-0.54-2.54-0.56-0.56","turk_code":"lvls737x7p7l","usefulFt1":1,"usefulFt2":2,"favoredEnd1":1,"favoredEnd2":0},{"rt":638.2000000476837,"stimulus":"<div><b>Incorrect!</b></div><div> </div><div>Press any key to try again</div>","response":0,"first":"other","answer":1,"name":"Theresa","otherName":"Danielle","namedWug":[1,1,1,0],"otherWug":[0,0,0,1],"trial_type":"html-keyboard-response","trial_index":199,"time_elapsed":282432,"internal_node_id":"0.0-4.1-0.54-2.54-0.56-1.56","turk_code":"lvls737x7p7l","usefulFt1":1,"usefulFt2":2,"favoredEnd1":1,"favoredEnd2":0},{"rt":360.7000000476837,"response":1,"first":"other","answer":1,"name":"Theresa","otherName":"Danielle","namedWug":[1,1,1,0],"otherWug":[0,0,0,1],"trial_type":"canvas-button-response","trial_index":200,"time_elapsed":282795,"internal_node_id":"0.0-4.1-0.54-2.54-0.57-0.57","turk_code":"lvls737x7p7l","usefulFt1":1,"usefulFt2":2,"favoredEnd1":1,"favoredEnd2":0},{"rt":101.5,"stimulus":"<div><b>Correct!</b></div><div> </div><div>Press any key to continue</div>","response":1,"first":"other","answer":1,"name":"Theresa","otherName":"Danielle","namedWug":[1,1,1,0],"otherWug":[0,0,0,1],"trial_type":"html-keyboard-response","trial_index":201,"time_elapsed":282897,"internal_node_id":"0.0-4.1-0.54-2.54-0.57-1.57","turk_code":"lvls737x7p7l","usefulFt1":1,"usefulFt2":2,"favoredEnd1":1,"favoredEnd2":0},{"rt":583.7000000476837,"response":0,"first":"other","answer":0,"name":"Theresa","otherName":"Danielle","namedWug":[1,1,1,0],"otherWug":[0,0,0,1],"trial_type":"canvas-button-response","trial_index":202,"time_elapsed":283483,"internal_node_id":"0.0-4.1-0.54-2.54-1.54-0.54","turk_code":"lvls737x7p7l","usefulFt1":1,"usefulFt2":2,"favoredEnd1":1,"favoredEnd2":0},{"rt":101.19999980926514,"stimulus":"<div><b>Correct!</b></div><div> </div><div>Press any key to continue</div>","response":0,"first":"other","answer":0,"name":"Theresa","otherName":"Danielle","namedWug":[1,1,1,0],"otherWug":[0,0,0,1],"trial_type":"html-keyboard-response","trial_index":203,"time_elapsed":283585,"internal_node_id":"0.0-4.1-0.54-2.54-1.54-1.54","turk_code":"lvls737x7p7l","usefulFt1":1,"usefulFt2":2,"favoredEnd1":1,"favoredEnd2":0},{"rt":812.3999998569489,"response":0,"namedWug":[1,1,0,0],"otherWug":[1,1,1,0],"name":"Wayne","otherName":"Theresa","left":1,"trial_type":"canvas-button-response","trial_index":204,"time_elapsed":284399,"internal_node_id":"0.0-4.1-0.55-0.55","turk_code":"lvls737x7p7l","usefulFt1":1,"usefulFt2":2,"favoredEnd1":1,"favoredEnd2":0,"correct":true},{"rt":850.9000000953674,"response":0,"name":"Wayne","otherName":"Theresa","namedWug":[1,1,0,0],"otherWug":[1,1,1,0],"trialCorrect":true,"trial_type":"canvas-button-response","trial_index":205,"time_elapsed":285252,"internal_node_id":"0.0-4.1-0.55-1.55","turk_code":"lvls737x7p7l","usefulFt1":1,"usefulFt2":2,"favoredEnd1":1,"favoredEnd2":0},{"rt":1783.3999998569489,"response":1,"namedWug":[0,0,1,1],"otherWug":[1,1,0,0],"name":"Beverly","otherName":"Wayne","left":1,"trial_type":"canvas-button-response","trial_index":206,"time_elapsed":287037,"internal_node_id":"0.0-4.1-0.56-0.56","turk_code":"lvls737x7p7l","usefulFt1":1,"usefulFt2":2,"favoredEnd1":1,"favoredEnd2":0,"correct":false},{"rt":740.7999999523163,"response":0,"name":"Beverly","otherName":"Wayne","namedWug":[0,0,1,1],"otherWug":[1,1,0,0],"trialCorrect":false,"trial_type":"canvas-button-response","trial_index":207,"time_elapsed":287780,"internal_node_id":"0.0-4.1-0.56-1.56","turk_code":"lvls737x7p7l","usefulFt1":1,"usefulFt2":2,"favoredEnd1":1,"favoredEnd2":0},{"rt":1231,"response":0,"first":"named","answer":0,"name":"Beverly","otherName":"Wayne","namedWug":[0,0,1,1],"otherWug":[1,1,0,0],"trial_type":"canvas-button-response","trial_index":208,"time_elapsed":289013,"internal_node_id":"0.0-4.1-0.56-2.56-0.59-0.59","turk_code":"lvls737x7p7l","usefulFt1":1,"usefulFt2":2,"favoredEnd1":1,"favoredEnd2":0},{"rt":288.2999999523163,"stimulus":"<div><b>Correct!</b></div><div> </div><div>Press any key to continue</div>","response":0,"first":"named","answer":0,"name":"Beverly","otherName":"Wayne","namedWug":[0,0,1,1],"otherWug":[1,1,0,0],"trial_type":"html-keyboard-response","trial_index":209,"time_elapsed":289302,"internal_node_id":"0.0-4.1-0.56-2.56-0.59-1.59","turk_code":"lvls737x7p7l","usefulFt1":1,"usefulFt2":2,"favoredEnd1":1,"favoredEnd2":0},{"rt":552,"response":1,"first":"named","answer":1,"name":"Beverly","otherName":"Wayne","namedWug":[0,0,1,1],"otherWug":[1,1,0,0],"trial_type":"canvas-button-response","trial_index":210,"time_elapsed":289855,"internal_node_id":"0.0-4.1-0.56-2.56-1.56-0.56","turk_code":"lvls737x7p7l","usefulFt1":1,"usefulFt2":2,"favoredEnd1":1,"favoredEnd2":0},{"rt":108.89999985694885,"stimulus":"<div><b>Correct!</b></div><div> </div><div>Press any key to continue</div>","response":1,"first":"named","answer":1,"name":"Beverly","otherName":"Wayne","namedWug":[0,0,1,1],"otherWug":[1,1,0,0],"trial_type":"html-keyboard-response","trial_index":211,"time_elapsed":289965,"internal_node_id":"0.0-4.1-0.56-2.56-1.56-1.56","turk_code":"lvls737x7p7l","usefulFt1":1,"usefulFt2":2,"favoredEnd1":1,"favoredEnd2":0},{"rt":1114,"response":0,"namedWug":[0,0,0,1],"otherWug":[1,1,1,0],"name":"Danielle","otherName":"Theresa","left":1,"trial_type":"canvas-button-response","trial_index":212,"time_elapsed":291080,"internal_node_id":"0.0-4.1-0.57-0.57","turk_code":"lvls737x7p7l","usefulFt1":1,"usefulFt2":2,"favoredEnd1":1,"favoredEnd2":0,"correct":true},{"rt":1182.7999999523163,"response":0,"name":"Danielle","otherName":"Theresa","namedWug":[0,0,0,1],"otherWug":[1,1,1,0],"trialCorrect":true,"trial_type":"canvas-button-response","trial_index":213,"time_elapsed":292265,"internal_node_id":"0.0-4.1-0.57-1.57","turk_code":"lvls737x7p7l","usefulFt1":1,"usefulFt2":2,"favoredEnd1":1,"favoredEnd2":0},{"rt":4483.5,"response":1,"namedWug":[1,0,1,0],"otherWug":[0,1,0,1],"name":"Doris","otherName":"Kayla","left":0,"trial_type":"canvas-button-response","trial_index":214,"time_elapsed":296750,"internal_node_id":"0.0-4.1-0.58-0.58","turk_code":"lvls737x7p7l","usefulFt1":1,"usefulFt2":2,"favoredEnd1":1,"favoredEnd2":0,"correct":true},{"rt":1018.2999999523163,"response":0,"name":"Doris","otherName":"Kayla","namedWug":[1,0,1,0],"otherWug":[0,1,0,1],"trialCorrect":true,"trial_type":"canvas-button-response","trial_index":215,"time_elapsed":297770,"internal_node_id":"0.0-4.1-0.58-1.58","turk_code":"lvls737x7p7l","usefulFt1":1,"usefulFt2":2,"favoredEnd1":1,"favoredEnd2":0},{"rt":2320.2999999523163,"response":0,"namedWug":[1,0,0,0],"otherWug":[1,0,1,0],"name":"Vincent","otherName":"Doris","left":0,"trial_type":"canvas-button-response","trial_index":216,"time_elapsed":300092,"internal_node_id":"0.0-4.1-0.59-0.59","turk_code":"lvls737x7p7l","usefulFt1":1,"usefulFt2":2,"favoredEnd1":1,"favoredEnd2":0,"correct":false},{"rt":804.0999999046326,"response":0,"name":"Vincent","otherName":"Doris","namedWug":[1,0,0,0],"otherWug":[1,0,1,0],"trialCorrect":false,"trial_type":"canvas-button-response","trial_index":217,"time_elapsed":300897,"internal_node_id":"0.0-4.1-0.59-1.59","turk_code":"lvls737x7p7l","usefulFt1":1,"usefulFt2":2,"favoredEnd1":1,"favoredEnd2":0},{"rt":867.2000000476837,"response":0,"first":"named","answer":0,"name":"Vincent","otherName":"Doris","namedWug":[1,0,0,0],"otherWug":[1,0,1,0],"trial_type":"canvas-button-response","trial_index":218,"time_elapsed":301767,"internal_node_id":"0.0-4.1-0.59-2.59-0.62-0.62","turk_code":"lvls737x7p7l","usefulFt1":1,"usefulFt2":2,"favoredEnd1":1,"favoredEnd2":0},{"rt":268.60000014305115,"stimulus":"<div><b>Correct!</b></div><div> </div><div>Press any key to continue</div>","response":0,"first":"named","answer":0,"name":"Vincent","otherName":"Doris","namedWug":[1,0,0,0],"otherWug":[1,0,1,0],"trial_type":"html-keyboard-response","trial_index":219,"time_elapsed":302036,"internal_node_id":"0.0-4.1-0.59-2.59-0.62-1.62","turk_code":"lvls737x7p7l","usefulFt1":1,"usefulFt2":2,"favoredEnd1":1,"favoredEnd2":0},{"rt":534.7000000476837,"response":1,"first":"named","answer":1,"name":"Vincent","otherName":"Doris","namedWug":[1,0,0,0],"otherWug":[1,0,1,0],"trial_type":"canvas-button-response","trial_index":220,"time_elapsed":302573,"internal_node_id":"0.0-4.1-0.59-2.59-1.59-0.59","turk_code":"lvls737x7p7l","usefulFt1":1,"usefulFt2":2,"favoredEnd1":1,"favoredEnd2":0},{"rt":256.2999999523163,"stimulus":"<div><b>Correct!</b></div><div> </div><div>Press any key to continue</div>","response":1,"first":"named","answer":1,"name":"Vincent","otherName":"Doris","namedWug":[1,0,0,0],"otherWug":[1,0,1,0],"trial_type":"html-keyboard-response","trial_index":221,"time_elapsed":302830,"internal_node_id":"0.0-4.1-0.59-2.59-1.59-1.59","turk_code":"lvls737x7p7l","usefulFt1":1,"usefulFt2":2,"favoredEnd1":1,"favoredEnd2":0},{"rt":933.2000000476837,"response":0,"namedWug":[0,1,0,1],"otherWug":[0,1,1,1],"name":"Kayla","otherName":"Ray","left":1,"trial_type":"canvas-button-response","trial_index":222,"time_elapsed":303765,"internal_node_id":"0.0-4.1-0.60-0.60","turk_code":"lvls737x7p7l","usefulFt1":1,"usefulFt2":2,"favoredEnd1":1,"favoredEnd2":0,"correct":true},{"rt":936.7999999523163,"response":0,"name":"Kayla","otherName":"Ray","namedWug":[0,1,0,1],"otherWug":[0,1,1,1],"trialCorrect":true,"trial_type":"canvas-button-response","trial_index":223,"time_elapsed":304704,"internal_node_id":"0.0-4.1-0.60-1.60","turk_code":"lvls737x7p7l","usefulFt1":1,"usefulFt2":2,"favoredEnd1":1,"favoredEnd2":0},{"rt":1310.1999998092651,"response":0,"namedWug":[0,0,1,1],"otherWug":[1,1,0,0],"name":"Beverly","otherName":"Wayne","left":0,"trial_type":"canvas-button-response","trial_index":224,"time_elapsed":306015,"internal_node_id":"0.0-4.1-0.61-0.61","turk_code":"lvls737x7p7l","usefulFt1":1,"usefulFt2":2,"favoredEnd1":1,"favoredEnd2":0,"correct":false},{"rt":890.5999999046326,"response":0,"name":"Beverly","otherName":"Wayne","namedWug":[0,0,1,1],"otherWug":[1,1,0,0],"trialCorrect":false,"trial_type":"canvas-button-response","trial_index":225,"time_elapsed":306907,"internal_node_id":"0.0-4.1-0.61-1.61","turk_code":"lvls737x7p7l","usefulFt1":1,"usefulFt2":2,"favoredEnd1":1,"favoredEnd2":0},{"rt":980.1000001430511,"response":1,"first":"other","answer":1,"name":"Beverly","otherName":"Wayne","namedWug":[0,0,1,1],"otherWug":[1,1,0,0],"trial_type":"canvas-button-response","trial_index":226,"time_elapsed":307889,"internal_node_id":"0.0-4.1-0.61-2.61-0.64-0.64","turk_code":"lvls737x7p7l","usefulFt1":1,"usefulFt2":2,"favoredEnd1":1,"favoredEnd2":0},{"rt":218.5,"stimulus":"<div><b>Correct!</b></div><div> </div><div>Press any key to continue</div>","response":1,"first":"other","answer":1,"name":"Beverly","otherName":"Wayne","namedWug":[0,0,1,1],"otherWug":[1,1,0,0],"trial_type":"html-keyboard-response","trial_index":227,"time_elapsed":308108,"internal_node_id":"0.0-4.1-0.61-2.61-0.64-1.64","turk_code":"lvls737x7p7l","usefulFt1":1,"usefulFt2":2,"favoredEnd1":1,"favoredEnd2":0},{"rt":582.6000001430511,"response":0,"first":"other","answer":0,"name":"Beverly","otherName":"Wayne","namedWug":[0,0,1,1],"otherWug":[1,1,0,0],"trial_type":"canvas-button-response","trial_index":228,"time_elapsed":308693,"internal_node_id":"0.0-4.1-0.61-2.61-1.61-0.61","turk_code":"lvls737x7p7l","usefulFt1":1,"usefulFt2":2,"favoredEnd1":1,"favoredEnd2":0},{"rt":164,"stimulus":"<div><b>Correct!</b></div><div> </div><div>Press any key to continue</div>","response":0,"first":"other","answer":0,"name":"Beverly","otherName":"Wayne","namedWug":[0,0,1,1],"otherWug":[1,1,0,0],"trial_type":"html-keyboard-response","trial_index":229,"time_elapsed":308857,"internal_node_id":"0.0-4.1-0.61-2.61-1.61-1.61","turk_code":"lvls737x7p7l","usefulFt1":1,"usefulFt2":2,"favoredEnd1":1,"favoredEnd2":0},{"rt":624.1999998092651,"response":0,"namedWug":[1,1,1,0],"otherWug":[1,0,1,0],"name":"Theresa","otherName":"Doris","left":0,"trial_type":"canvas-button-response","trial_index":230,"time_elapsed":309484,"internal_node_id":"0.0-4.1-0.62-0.62","turk_code":"lvls737x7p7l","usefulFt1":1,"usefulFt2":2,"favoredEnd1":1,"favoredEnd2":0,"correct":false},{"rt":701.4000000953674,"response":0,"name":"Theresa","otherName":"Doris","namedWug":[1,1,1,0],"otherWug":[1,0,1,0],"trialCorrect":false,"trial_type":"canvas-button-response","trial_index":231,"time_elapsed":310187,"internal_node_id":"0.0-4.1-0.62-1.62","turk_code":"lvls737x7p7l","usefulFt1":1,"usefulFt2":2,"favoredEnd1":1,"favoredEnd2":0},{"rt":881.5,"response":1,"first":"named","answer":0,"name":"Theresa","otherName":"Doris","namedWug":[1,1,1,0],"otherWug":[1,0,1,0],"trial_type":"canvas-button-response","trial_index":232,"time_elapsed":311070,"internal_node_id":"0.0-4.1-0.62-2.62-0.65-0.65","turk_code":"lvls737x7p7l","usefulFt1":1,"usefulFt2":2,"favoredEnd1":1,"favoredEnd2":0},{"rt":295.2999999523163,"stimulus":"<div><b>Incorrect!</b></div><div> </div><div>Press any key to try again</div>","response":1,"first":"named","answer":0,"name":"Theresa","otherName":"Doris","namedWug":[1,1,1,0],"otherWug":[1,0,1,0],"trial_type":"html-keyboard-response","trial_index":233,"time_elapsed":311366,"internal_node_id":"0.0-4.1-0.62-2.62-0.65-1.65","turk_code":"lvls737x7p7l","usefulFt1":1,"usefulFt2":2,"favoredEnd1":1,"favoredEnd2":0},{"rt":515.7999999523163,"response":0,"first":"named","answer":0,"name":"Theresa","otherName":"Doris","namedWug":[1,1,1,0],"otherWug":[1,0,1,0],"trial_type":"canvas-button-response","trial_index":234,"time_elapsed":311883,"internal_node_id":"0.0-4.1-0.62-2.62-0.66-0.66","turk_code":"lvls737x7p7l","usefulFt1":1,"usefulFt2":2,"favoredEnd1":1,"favoredEnd2":0},{"rt":87,"stimulus":"<div><b>Correct!</b></div><div> </div><div>Press any key to continue</div>","response":0,"first":"named","answer":0,"name":"Theresa","otherName":"Doris","namedWug":[1,1,1,0],"otherWug":[1,0,1,0],"trial_type":"html-keyboard-response","trial_index":235,"time_elapsed":311971,"internal_node_id":"0.0-4.1-0.62-2.62-0.66-1.66","turk_code":"lvls737x7p7l","usefulFt1":1,"usefulFt2":2,"favoredEnd1":1,"favoredEnd2":0},{"rt":795.2000000476837,"response":1,"first":"named","answer":1,"name":"Theresa","otherName":"Doris","namedWug":[1,1,1,0],"otherWug":[1,0,1,0],"trial_type":"canvas-button-response","trial_index":236,"time_elapsed":312768,"internal_node_id":"0.0-4.1-0.62-2.62-1.62-0.62","turk_code":"lvls737x7p7l","usefulFt1":1,"usefulFt2":2,"favoredEnd1":1,"favoredEnd2":0},{"rt":272.39999985694885,"stimulus":"<div><b>Correct!</b></div><div> </div><div>Press any key to continue</div>","response":1,"first":"named","answer":1,"name":"Theresa","otherName":"Doris","namedWug":[1,1,1,0],"otherWug":[1,0,1,0],"trial_type":"html-keyboard-response","trial_index":237,"time_elapsed":313041,"internal_node_id":"0.0-4.1-0.62-2.62-1.62-1.62","turk_code":"lvls737x7p7l","usefulFt1":1,"usefulFt2":2,"favoredEnd1":1,"favoredEnd2":0},{"rt":1281.7999999523163,"response":0,"namedWug":[1,0,1,0],"otherWug":[0,1,0,1],"name":"Doris","otherName":"Kayla","left":0,"trial_type":"canvas-button-response","trial_index":238,"time_elapsed":314324,"internal_node_id":"0.0-4.1-0.63-0.63","turk_code":"lvls737x7p7l","usefulFt1":1,"usefulFt2":2,"favoredEnd1":1,"favoredEnd2":0,"correct":false},{"rt":1026.4000000953674,"response":0,"name":"Doris","otherName":"Kayla","namedWug":[1,0,1,0],"otherWug":[0,1,0,1],"trialCorrect":false,"trial_type":"canvas-button-response","trial_index":239,"time_elapsed":315352,"internal_node_id":"0.0-4.1-0.63-1.63","turk_code":"lvls737x7p7l","usefulFt1":1,"usefulFt2":2,"favoredEnd1":1,"favoredEnd2":0},{"rt":835.5999999046326,"response":0,"first":"named","answer":0,"name":"Doris","otherName":"Kayla","namedWug":[1,0,1,0],"otherWug":[0,1,0,1],"trial_type":"canvas-button-response","trial_index":240,"time_elapsed":316189,"internal_node_id":"0.0-4.1-0.63-2.63-0.67-0.67","turk_code":"lvls737x7p7l","usefulFt1":1,"usefulFt2":2,"favoredEnd1":1,"favoredEnd2":0},{"rt":420.10000014305115,"stimulus":"<div><b>Correct!</b></div><div> </div><div>Press any key to continue</div>","response":0,"first":"named","answer":0,"name":"Doris","otherName":"Kayla","namedWug":[1,0,1,0],"otherWug":[0,1,0,1],"trial_type":"html-keyboard-response","trial_index":241,"time_elapsed":316610,"internal_node_id":"0.0-4.1-0.63-2.63-0.67-1.67","turk_code":"lvls737x7p7l","usefulFt1":1,"usefulFt2":2,"favoredEnd1":1,"favoredEnd2":0},{"rt":660.2000000476837,"response":1,"first":"named","answer":1,"name":"Doris","otherName":"Kayla","namedWug":[1,0,1,0],"otherWug":[0,1,0,1],"trial_type":"canvas-button-response","trial_index":242,"time_elapsed":317271,"internal_node_id":"0.0-4.1-0.63-2.63-1.63-0.63","turk_code":"lvls737x7p7l","usefulFt1":1,"usefulFt2":2,"favoredEnd1":1,"favoredEnd2":0},{"rt":573,"stimulus":"<div><b>Correct!</b></div><div> </div><div>Press any key to continue</div>","response":1,"first":"named","answer":1,"name":"Doris","otherName":"Kayla","namedWug":[1,0,1,0],"otherWug":[0,1,0,1],"trial_type":"html-keyboard-response","trial_index":243,"time_elapsed":317845,"internal_node_id":"0.0-4.1-0.63-2.63-1.63-1.63","turk_code":"lvls737x7p7l","usefulFt1":1,"usefulFt2":2,"favoredEnd1":1,"favoredEnd2":0},{"rt":4209,"response":2,"name":"Beverly","name_choices":["Danielle","Kayla","Ray","Beverly","Vincent","Doris","Wayne","Theresa"],"wug":[0,0,1,1],"names":["Beverly","Wayne","Ray","Vincent","Danielle","Theresa","Kayla","Doris"],"trial_type":"canvas-button-response","trial_index":244,"time_elapsed":322056,"internal_node_id":"0.0-4.1-1.1-0.8-0.8","turk_code":"lvls737x7p7l","usefulFt1":1,"usefulFt2":2,"favoredEnd1":1,"favoredEnd2":0},{"rt":867.2000000476837,"response":0,"name":"Beverly","trial_type":"canvas-button-response","trial_index":245,"time_elapsed":322925,"internal_node_id":"0.0-4.1-1.1-0.8-1.8","turk_code":"lvls737x7p7l","usefulFt1":1,"usefulFt2":2,"favoredEnd1":1,"favoredEnd2":0},{"rt":7914.299999952316,"response":6,"name":"Wayne","name_choices":["Danielle","Kayla","Ray","Beverly","Vincent","Doris","Wayne","Theresa"],"wug":[1,1,0,0],"names":["Beverly","Wayne","Ray","Vincent","Danielle","Theresa","Kayla","Doris"],"trial_type":"canvas-button-response","trial_index":246,"time_elapsed":330842,"internal_node_id":"0.0-4.1-1.1-0.9-0.9","turk_code":"lvls737x7p7l","usefulFt1":1,"usefulFt2":2,"favoredEnd1":1,"favoredEnd2":0},{"rt":873.5999999046326,"response":0,"name":"Wayne","trial_type":"canvas-button-response","trial_index":247,"time_elapsed":331718,"internal_node_id":"0.0-4.1-1.1-0.9-1.9","turk_code":"lvls737x7p7l","usefulFt1":1,"usefulFt2":2,"favoredEnd1":1,"favoredEnd2":0},{"rt":3012.0999999046326,"response":2,"name":"Ray","name_choices":["Danielle","Kayla","Ray","Beverly","Vincent","Doris","Wayne","Theresa"],"wug":[0,1,1,1],"names":["Beverly","Wayne","Ray","Vincent","Danielle","Theresa","Kayla","Doris"],"trial_type":"canvas-button-response","trial_index":248,"time_elapsed":334732,"internal_node_id":"0.0-4.1-1.1-0.10-0.10","turk_code":"lvls737x7p7l","usefulFt1":1,"usefulFt2":2,"favoredEnd1":1,"favoredEnd2":0},{"rt":582.7999999523163,"response":0,"name":"Ray","trial_type":"canvas-button-response","trial_index":249,"time_elapsed":335316,"internal_node_id":"0.0-4.1-1.1-0.10-1.10","turk_code":"lvls737x7p7l","usefulFt1":1,"usefulFt2":2,"favoredEnd1":1,"favoredEnd2":0},{"rt":9132.899999856949,"response":4,"name":"Vincent","name_choices":["Danielle","Kayla","Ray","Beverly","Vincent","Doris","Wayne","Theresa"],"wug":[1,0,0,0],"names":["Beverly","Wayne","Ray","Vincent","Danielle","Theresa","Kayla","Doris"],"trial_type":"canvas-button-response","trial_index":250,"time_elapsed":344451,"internal_node_id":"0.0-4.1-1.1-0.11-0.11","turk_code":"lvls737x7p7l","usefulFt1":1,"usefulFt2":2,"favoredEnd1":1,"favoredEnd2":0},{"rt":1009.8999998569489,"response":0,"name":"Vincent","trial_type":"canvas-button-response","trial_index":251,"time_elapsed":345462,"internal_node_id":"0.0-4.1-1.1-0.11-1.11","turk_code":"lvls737x7p7l","usefulFt1":1,"usefulFt2":2,"favoredEnd1":1,"favoredEnd2":0},{"rt":2083.100000143051,"response":0,"name":"Danielle","name_choices":["Danielle","Kayla","Ray","Beverly","Vincent","Doris","Wayne","Theresa"],"wug":[0,0,0,1],"names":["Beverly","Wayne","Ray","Vincent","Danielle","Theresa","Kayla","Doris"],"trial_type":"canvas-button-response","trial_index":252,"time_elapsed":347547,"internal_node_id":"0.0-4.1-1.1-0.12-0.12","turk_code":"lvls737x7p7l","usefulFt1":1,"usefulFt2":2,"favoredEnd1":1,"favoredEnd2":0},{"rt":1358.5999999046326,"response":0,"name":"Danielle","trial_type":"canvas-button-response","trial_index":253,"time_elapsed":348907,"internal_node_id":"0.0-4.1-1.1-0.12-1.12","turk_code":"lvls737x7p7l","usefulFt1":1,"usefulFt2":2,"favoredEnd1":1,"favoredEnd2":0},{"rt":3323.100000143051,"response":7,"name":"Theresa","name_choices":["Danielle","Kayla","Ray","Beverly","Vincent","Doris","Wayne","Theresa"],"wug":[1,1,1,0],"names":["Beverly","Wayne","Ray","Vincent","Danielle","Theresa","Kayla","Doris"],"trial_type":"canvas-button-response","trial_index":254,"time_elapsed":352232,"internal_node_id":"0.0-4.1-1.1-0.13-0.13","turk_code":"lvls737x7p7l","usefulFt1":1,"usefulFt2":2,"favoredEnd1":1,"favoredEnd2":0},{"rt":725,"response":0,"name":"Theresa","trial_type":"canvas-button-response","trial_index":255,"time_elapsed":352958,"internal_node_id":"0.0-4.1-1.1-0.13-1.13","turk_code":"lvls737x7p7l","usefulFt1":1,"usefulFt2":2,"favoredEnd1":1,"favoredEnd2":0},{"rt":3907.600000143051,"response":5,"name":"Kayla","name_choices":["Danielle","Kayla","Ray","Beverly","Vincent","Doris","Wayne","Theresa"],"wug":[0,1,0,1],"names":["Beverly","Wayne","Ray","Vincent","Danielle","Theresa","Kayla","Doris"],"trial_type":"canvas-button-response","trial_index":256,"time_elapsed":356867,"internal_node_id":"0.0-4.1-1.1-0.14-0.14","turk_code":"lvls737x7p7l","usefulFt1":1,"usefulFt2":2,"favoredEnd1":1,"favoredEnd2":0},{"rt":640.3999998569489,"response":0,"name":"Kayla","trial_type":"canvas-button-response","trial_index":257,"time_elapsed":357510,"internal_node_id":"0.0-4.1-1.1-0.14-1.14","turk_code":"lvls737x7p7l","usefulFt1":1,"usefulFt2":2,"favoredEnd1":1,"favoredEnd2":0},{"rt":1923,"response":5,"name":"Doris","name_choices":["Danielle","Kayla","Ray","Beverly","Vincent","Doris","Wayne","Theresa"],"wug":[1,0,1,0],"names":["Beverly","Wayne","Ray","Vincent","Danielle","Theresa","Kayla","Doris"],"trial_type":"canvas-button-response","trial_index":258,"time_elapsed":359436,"internal_node_id":"0.0-4.1-1.1-0.15-0.15","turk_code":"lvls737x7p7l","usefulFt1":1,"usefulFt2":2,"favoredEnd1":1,"favoredEnd2":0},{"rt":746.0999999046326,"response":0,"name":"Doris","trial_type":"canvas-button-response","trial_index":259,"time_elapsed":360184,"internal_node_id":"0.0-4.1-1.1-0.15-1.15","turk_code":"lvls737x7p7l","usefulFt1":1,"usefulFt2":2,"favoredEnd1":1,"favoredEnd2":0},{"rt":2329.5,"response":1,"namedWug":[1,1,0,0],"otherWug":[1,0,0,0],"name":"Wayne","otherName":"Vincent","left":0,"trial_type":"canvas-button-response","trial_index":260,"time_elapsed":362518,"internal_node_id":"0.0-4.2-0.64-0.64","turk_code":"lvls737x7p7l","usefulFt1":1,"usefulFt2":2,"favoredEnd1":1,"favoredEnd2":0,"correct":true},{"rt":690.5999999046326,"response":0,"name":"Wayne","otherName":"Vincent","namedWug":[1,1,0,0],"otherWug":[1,0,0,0],"trialCorrect":true,"trial_type":"canvas-button-response","trial_index":261,"time_elapsed":363211,"internal_node_id":"0.0-4.2-0.64-1.64","turk_code":"lvls737x7p7l","usefulFt1":1,"usefulFt2":2,"favoredEnd1":1,"favoredEnd2":0},{"rt":1687.1999998092651,"response":1,"namedWug":[0,0,0,1],"otherWug":[0,0,1,1],"name":"Danielle","otherName":"Beverly","left":0,"trial_type":"canvas-button-response","trial_index":262,"time_elapsed":364900,"internal_node_id":"0.0-4.2-0.65-0.65","turk_code":"lvls737x7p7l","usefulFt1":1,"usefulFt2":2,"favoredEnd1":1,"favoredEnd2":0,"correct":true},{"rt":644.9000000953674,"response":0,"name":"Danielle","otherName":"Beverly","namedWug":[0,0,0,1],"otherWug":[0,0,1,1],"trialCorrect":true,"trial_type":"canvas-button-response","trial_index":263,"time_elapsed":365547,"internal_node_id":"0.0-4.2-0.65-1.65","turk_code":"lvls737x7p7l","usefulFt1":1,"usefulFt2":2,"favoredEnd1":1,"favoredEnd2":0},{"rt":3349,"response":1,"namedWug":[1,0,0,0],"otherWug":[0,1,1,1],"name":"Vincent","otherName":"Ray","left":0,"trial_type":"canvas-button-response","trial_index":264,"time_elapsed":368897,"internal_node_id":"0.0-4.2-0.66-0.66","turk_code":"lvls737x7p7l","usefulFt1":1,"usefulFt2":2,"favoredEnd1":1,"favoredEnd2":0,"correct":true},{"rt":754.9000000953674,"response":0,"name":"Vincent","otherName":"Ray","namedWug":[1,0,0,0],"otherWug":[0,1,1,1],"trialCorrect":true,"trial_type":"canvas-button-response","trial_index":265,"time_elapsed":369654,"internal_node_id":"0.0-4.2-0.66-1.66","turk_code":"lvls737x7p7l","usefulFt1":1,"usefulFt2":2,"favoredEnd1":1,"favoredEnd2":0},{"rt":1096.4000000953674,"response":0,"namedWug":[0,1,1,1],"otherWug":[1,0,0,0],"name":"Ray","otherName":"Vincent","left":1,"trial_type":"canvas-button-response","trial_index":266,"time_elapsed":370752,"internal_node_id":"0.0-4.2-0.67-0.67","turk_code":"lvls737x7p7l","usefulFt1":1,"usefulFt2":2,"favoredEnd1":1,"favoredEnd2":0,"correct":true},{"rt":717.7999999523163,"response":0,"name":"Ray","otherName":"Vincent","namedWug":[0,1,1,1],"otherWug":[1,0,0,0],"trialCorrect":true,"trial_type":"canvas-button-response","trial_index":267,"time_elapsed":371471,"internal_node_id":"0.0-4.2-0.67-1.67","turk_code":"lvls737x7p7l","usefulFt1":1,"usefulFt2":2,"favoredEnd1":1,"favoredEnd2":0},{"rt":1585.7000000476837,"response":1,"namedWug":[0,1,0,1],"otherWug":[0,0,0,1],"name":"Kayla","otherName":"Danielle","left":1,"trial_type":"canvas-button-response","trial_index":268,"time_elapsed":373059,"internal_node_id":"0.0-4.2-0.68-0.68","turk_code":"lvls737x7p7l","usefulFt1":1,"usefulFt2":2,"favoredEnd1":1,"favoredEnd2":0,"correct":false},{"rt":780.0999999046326,"response":0,"name":"Kayla","otherName":"Danielle","namedWug":[0,1,0,1],"otherWug":[0,0,0,1],"trialCorrect