{'inData': '[{"rt":1792.9000000953674,"stimulus":"<DIV align=\'left\'><div>&nbsp;</div><div>Please consider this information carefully before deciding whether to participate in this research.</div><div>&nbsp;</div><div>The purpose of this research is to examine which factors influence social judgment and decision-</div><div>making. You will be asked to make judgements about individuals and actions in social scenarios.</div><div>We are simply interested in your judgement. The study will take less than 1 hour to complete,</div><div>and you will receive less than $20 on Amazon Mechanical Turk. Your compensation and time</div><div>commitment are specified in the study description. There are no anticipated risks associated with</div><div>participating in this study. The effects of participating should be comparable to those you would</div><div>ordinarily experience from viewing a computer monitor and using a mouse or keyboard for a</div><div>similar amount of time. At the end of the study, we will provide an explanation of the questions</div><div>that motivate this line of research and will describe the potential implications.</div><div>&nbsp;</div><div>Your participation in this study is completely voluntary and you may refuse to participate or you</div><div>may choose to withdraw at any time without penalty or loss of benefits to you which are</div><div>otherwise entitled. Your participation in this study will remain confidential. No personally</div><div>identifiable information will be associated with your data. Also, all analyses of the data will be</div><div>averaged across all the participants, so your individual responses will never be specifically</div><div>analyzed.</div><div>&nbsp;</div><div>If you have questions or concerns about your participation or payment, or want to request a</div><div>summary of research findings, please contact Dr. Jonathan Phillips at</div><div><a href=mailto:Jonathan.S.Phillips@dartmouth.edu>Jonathan.S.Phillips@dartmouth.edu</a>.</div><div>&nbsp;</div><div>Please save a copy of this form for your records.</div><div>&nbsp;</div></DIV><div>Agreement:</div><DIV align=\'left\'><div>The nature and purpose of this research have been sufficiently explained and I agree to</div><div>participate in this study. I understand that I am free to withdraw at any time without incurring</div><div>any penalty. Please consent by clicking the button below to continue. Otherwise, please exit the</div><div>study at any time.</div><div>&nbsp;</div></DIV>","response":0,"trial_type":"html-button-response","trial_index":0,"time_elapsed":1796,"internal_node_id":"0.0-0.0","turk_code":"7uwhv3rggt3j"},{"rt":576.8999999761581,"stimulus":"<div class=\'center-content\'><br><br><br><br>Welcome to the HIT. Press any key to begin.","response":" ","trial_type":"html-keyboard-response","trial_index":1,"time_elapsed":2375,"internal_node_id":"0.0-1.0","turk_code":"7uwhv3rggt3j"},{"rt":1356.7000000476837,"response":{"subject_id":"id"},"trial_type":"survey-text","trial_index":2,"time_elapsed":3736,"internal_node_id":"0.0-2.0","turk_code":"7uwhv3rggt3j"},{"rt":859.2999999523163,"stimulus":"<div>In this experiment, you will be asked to identify different robots.</div><div>You will have to learn their names as you go.<br><br> Press any key to begin.","response":" ","trial_type":"html-keyboard-response","trial_index":3,"time_elapsed":4597,"internal_node_id":"0.0-3.0","turk_code":"7uwhv3rggt3j"},{"rt":975.8999999761581,"response":0,"namedWug":[1,1,1,0],"otherWug":[0,0,0,1],"name":"Lawrence","otherName":"Danielle","left":1,"trial_type":"canvas-button-response","trial_index":4,"time_elapsed":5577,"internal_node_id":"0.0-4.0-0.0-0.0","turk_code":"7uwhv3rggt3j","correct":true},{"rt":990.1000000238419,"response":0,"name":"Lawrence","otherName":"Danielle","namedWug":[1,1,1,0],"otherWug":[0,0,0,1],"trialCorrect":true,"trial_type":"canvas-button-response","trial_index":5,"time_elapsed":6572,"internal_node_id":"0.0-4.0-0.0-1.0","turk_code":"7uwhv3rggt3j"},{"rt":974.2000000476837,"response":1,"namedWug":[1,1,0,1],"otherWug":[0,0,1,0],"name":"Wayne","otherName":"Ray","left":1,"trial_type":"canvas-button-response","trial_index":6,"time_elapsed":7550,"internal_node_id":"0.0-4.0-0.1-0.1","turk_code":"7uwhv3rggt3j","correct":false},{"rt":5285.399999976158,"response":0,"name":"Wayne","otherName":"Ray","namedWug":[1,1,0,1],"otherWug":[0,0,1,0],"trialCorrect":false,"trial_type":"canvas-button-response","trial_index":7,"time_elapsed":12838,"internal_node_id":"0.0-4.0-0.1-1.1","turk_code":"7uwhv3rggt3j"},{"rt":1668.5,"response":1,"first":"other","answer":1,"name":"Wayne","otherName":"Ray","namedWug":[1,1,0,1],"otherWug":[0,0,1,0],"trial_type":"canvas-button-response","trial_index":8,"time_elapsed":14511,"internal_node_id":"0.0-4.0-0.1-2.1-0.1-0.1","turk_code":"7uwhv3rggt3j"},{"rt":373.3000000715256,"stimulus":"<div><b>Correct!</b></div><div> </div><div>Press any key to continue</div>","response":1,"first":"other","answer":1,"name":"Wayne","otherName":"Ray","namedWug":[1,1,0,1],"otherWug":[0,0,1,0],"trial_type":"html-keyboard-response","trial_index":9,"time_elapsed":14887,"internal_node_id":"0.0-4.0-0.1-2.1-0.1-1.1","turk_code":"7uwhv3rggt3j"},{"rt":1182.2999999523163,"response":0,"first":"other","answer":0,"name":"Wayne","otherName":"Ray","namedWug":[1,1,0,1],"otherWug":[0,0,1,0],"trial_type":"canvas-button-response","trial_index":10,"time_elapsed":16073,"internal_node_id":"0.0-4.0-0.1-2.1-1.1-0.1","turk_code":"7uwhv3rggt3j"},{"rt":205,"stimulus":"<div><b>Correct!</b></div><div> </div><div>Press any key to continue</div>","response":0,"first":"other","answer":0,"name":"Wayne","otherName":"Ray","namedWug":[1,1,0,1],"otherWug":[0,0,1,0],"trial_type":"html-keyboard-response","trial_index":11,"time_elapsed":16279,"internal_node_id":"0.0-4.0-0.1-2.1-1.1-1.1","turk_code":"7uwhv3rggt3j"},{"rt":793.2999999523163,"response":0,"namedWug":[0,0,0,1],"otherWug":[1,1,1,0],"name":"Danielle","otherName":"Lawrence","left":0,"trial_type":"canvas-button-response","trial_index":12,"time_elapsed":17075,"internal_node_id":"0.0-4.0-0.2-0.2","turk_code":"7uwhv3rggt3j","correct":false},{"rt":740.2000000476837,"response":0,"name":"Danielle","otherName":"Lawrence","namedWug":[0,0,0,1],"otherWug":[1,1,1,0],"trialCorrect":false,"trial_type":"canvas-button-response","trial_index":13,"time_elapsed":17819,"internal_node_id":"0.0-4.0-0.2-1.2","turk_code":"7uwhv3rggt3j"},{"rt":1703.6000000238419,"response":1,"first":"other","answer":1,"name":"Danielle","otherName":"Lawrence","namedWug":[0,0,0,1],"otherWug":[1,1,1,0],"trial_type":"canvas-button-response","trial_index":14,"time_elapsed":19525,"internal_node_id":"0.0-4.0-0.2-2.2-0.2-0.2","turk_code":"7uwhv3rggt3j"},{"rt":382.2999999523163,"stimulus":"<div><b>Correct!</b></div><div> </div><div>Press any key to continue</div>","response":1,"first":"other","answer":1,"name":"Danielle","otherName":"Lawrence","namedWug":[0,0,0,1],"otherWug":[1,1,1,0],"trial_type":"html-keyboard-response","trial_index":15,"time_elapsed":19909,"internal_node_id":"0.0-4.0-0.2-2.2-0.2-1.2","turk_code":"7uwhv3rggt3j"},{"rt":737.7999999523163,"response":0,"first":"other","answer":0,"name":"Danielle","otherName":"Lawrence","namedWug":[0,0,0,1],"otherWug":[1,1,1,0],"trial_type":"canvas-button-response","trial_index":16,"time_elapsed":20649,"internal_node_id":"0.0-4.0-0.2-2.2-1.2-0.2","turk_code":"7uwhv3rggt3j"},{"rt":332.8000000715256,"stimulus":"<div><b>Correct!</b></div><div> </div><div>Press any key to continue</div>","response":0,"first":"other","answer":0,"name":"Danielle","otherName":"Lawrence","namedWug":[0,0,0,1],"otherWug":[1,1,1,0],"trial_type":"html-keyboard-response","trial_index":17,"time_elapsed":20984,"internal_node_id":"0.0-4.0-0.2-2.2-1.2-1.2","turk_code":"7uwhv3rggt3j"},{"rt":11142.899999976158,"response":1,"namedWug":[0,0,1,0],"otherWug":[1,1,0,1],"name":"Ray","otherName":"Wayne","left":0,"trial_type":"canvas-button-response","trial_index":18,"time_elapsed":32130,"internal_node_id":"0.0-4.0-0.3-0.3","turk_code":"7uwhv3rggt3j","correct":true},{"rt":941.5999999046326,"response":0,"name":"Ray","otherName":"Wayne","namedWug":[0,0,1,0],"otherWug":[1,1,0,1],"trialCorrect":true,"trial_type":"canvas-button-response","trial_index":19,"time_elapsed":33074,"internal_node_id":"0.0-4.0-0.3-1.3","turk_code":"7uwhv3rggt3j"},{"rt":1081.2000000476837,"response":0,"namedWug":[1,1,1,1],"otherWug":[0,0,0,0],"name":"Rose","otherName":"Russell","left":0,"trial_type":"canvas-button-response","trial_index":20,"time_elapsed":34158,"internal_node_id":"0.0-4.0-0.4-0.4","turk_code":"7uwhv3rggt3j","correct":false},{"rt":1024.2000000476837,"response":0,"name":"Rose","otherName":"Russell","namedWug":[1,1,1,1],"otherWug":[0,0,0,0],"trialCorrect":false,"trial_type":"canvas-button-response","trial_index":21,"time_elapsed":35186,"internal_node_id":"0.0-4.0-0.4-1.4","turk_code":"7uwhv3rggt3j"},{"rt":999.2999999523163,"response":1,"first":"other","answer":1,"name":"Rose","otherName":"Russell","namedWug":[1,1,1,1],"otherWug":[0,0,0,0],"trial_type":"canvas-button-response","trial_index":22,"time_elapsed":36188,"internal_node_id":"0.0-4.0-0.4-2.4-0.4-0.4","turk_code":"7uwhv3rggt3j"},{"rt":258.90000009536743,"stimulus":"<div><b>Correct!</b></div><div> </div><div>Press any key to continue</div>","response":1,"first":"other","answer":1,"name":"Rose","otherName":"Russell","namedWug":[1,1,1,1],"otherWug":[0,0,0,0],"trial_type":"html-keyboard-response","trial_index":23,"time_elapsed":36449,"internal_node_id":"0.0-4.0-0.4-2.4-0.4-1.4","turk_code":"7uwhv3rggt3j"},{"rt":619.1999999284744,"response":0,"first":"other","answer":0,"name":"Rose","otherName":"Russell","namedWug":[1,1,1,1],"otherWug":[0,0,0,0],"trial_type":"canvas-button-response","trial_index":24,"time_elapsed":37070,"internal_node_id":"0.0-4.0-0.4-2.4-1.4-0.4","turk_code":"7uwhv3rggt3j"},{"rt":164.60000002384186,"stimulus":"<div><b>Correct!</b></div><div> </div><div>Press any key to continue</div>","response":0,"first":"other","answer":0,"name":"Rose","otherName":"Russell","namedWug":[1,1,1,1],"otherWug":[0,0,0,0],"trial_type":"html-keyboard-response","trial_index":25,"time_elapsed":37236,"internal_node_id":"0.0-4.0-0.4-2.4-1.4-1.4","turk_code":"7uwhv3rggt3j"},{"rt":1335.2999999523163,"response":1,"namedWug":[0,0,0,0],"otherWug":[0,0,1,0],"name":"Russell","otherName":"Ray","left":1,"trial_type":"canvas-button-response","trial_index":26,"time_elapsed":38574,"internal_node_id":"0.0-4.0-0.5-0.5","turk_code":"7uwhv3rggt3j","correct":false},{"rt":1281.8000000715256,"response":0,"name":"Russell","otherName":"Ray","namedWug":[0,0,0,0],"otherWug":[0,0,1,0],"trialCorrect":false,"trial_type":"canvas-button-response","trial_index":27,"time_elapsed":39859,"internal_node_id":"0.0-4.0-0.5-1.5","turk_code":"7uwhv3rggt3j"},{"rt":1832.6000000238419,"response":1,"first":"other","answer":1,"name":"Russell","otherName":"Ray","namedWug":[0,0,0,0],"otherWug":[0,0,1,0],"trial_type":"canvas-button-response","trial_index":28,"time_elapsed":41694,"internal_node_id":"0.0-4.0-0.5-2.5-0.5-0.5","turk_code":"7uwhv3rggt3j"},{"rt":262.2000000476837,"stimulus":"<div><b>Correct!</b></div><div> </div><div>Press any key to continue</div>","response":1,"first":"other","answer":1,"name":"Russell","otherName":"Ray","namedWug":[0,0,0,0],"otherWug":[0,0,1,0],"trial_type":"html-keyboard-response","trial_index":29,"time_elapsed":41958,"internal_node_id":"0.0-4.0-0.5-2.5-0.5-1.5","turk_code":"7uwhv3rggt3j"},{"rt":792.6000000238419,"response":0,"first":"other","answer":0,"name":"Russell","otherName":"Ray","namedWug":[0,0,0,0],"otherWug":[0,0,1,0],"trial_type":"canvas-button-response","trial_index":30,"time_elapsed":42753,"internal_node_id":"0.0-4.0-0.5-2.5-1.5-0.5","turk_code":"7uwhv3rggt3j"},{"rt":277.3000000715256,"stimulus":"<div><b>Correct!</b></div><div> </div><div>Press any key to continue</div>","response":0,"first":"other","answer":0,"name":"Russell","otherName":"Ray","namedWug":[0,0,0,0],"otherWug":[0,0,1,0],"trial_type":"html-keyboard-response","trial_index":31,"time_elapsed":43032,"internal_node_id":"0.0-4.0-0.5-2.5-1.5-1.5","turk_code":"7uwhv3rggt3j"},{"rt":946.6000000238419,"response":0,"namedWug":[0,0,1,1],"otherWug":[1,1,0,0],"name":"Vincent","otherName":"Theresa","left":1,"trial_type":"canvas-button-response","trial_index":32,"time_elapsed":43982,"internal_node_id":"0.0-4.0-0.6-0.6","turk_code":"7uwhv3rggt3j","correct":true},{"rt":1500.8999999761581,"response":0,"name":"Vincent","otherName":"Theresa","namedWug":[0,0,1,1],"otherWug":[1,1,0,0],"trialCorrect":true,"trial_type":"canvas-button-response","trial_index":33,"time_elapsed":45486,"internal_node_id":"0.0-4.0-0.6-1.6","turk_code":"7uwhv3rggt3j"},{"rt":1451.5999999046326,"response":1,"namedWug":[0,0,0,0],"otherWug":[0,0,0,1],"name":"Russell","otherName":"Danielle","left":1,"trial_type":"canvas-button-response","trial_index":34,"time_elapsed":46940,"internal_node_id":"0.0-4.0-0.7-0.7","turk_code":"7uwhv3rggt3j","correct":false},{"rt":1016.2999999523163,"response":0,"name":"Russell","otherName":"Danielle","namedWug":[0,0,0,0],"otherWug":[0,0,0,1],"trialCorrect":false,"trial_type":"canvas-button-response","trial_index":35,"time_elapsed":47959,"internal_node_id":"0.0-4.0-0.7-1.7","turk_code":"7uwhv3rggt3j"},{"rt":1429.1999999284744,"response":1,"first":"other","answer":1,"name":"Russell","otherName":"Danielle","namedWug":[0,0,0,0],"otherWug":[0,0,0,1],"trial_type":"canvas-button-response","trial_index":36,"time_elapsed":49391,"internal_node_id":"0.0-4.0-0.7-2.7-0.7-0.7","turk_code":"7uwhv3rggt3j"},{"rt":117,"stimulus":"<div><b>Correct!</b></div><div> </div><div>Press any key to continue</div>","response":1,"first":"other","answer":1,"name":"Russell","otherName":"Danielle","namedWug":[0,0,0,0],"otherWug":[0,0,0,1],"trial_type":"html-keyboard-response","trial_index":37,"time_elapsed":49509,"internal_node_id":"0.0-4.0-0.7-2.7-0.7-1.7","turk_code":"7uwhv3rggt3j"},{"rt":622.0999999046326,"response":0,"first":"other","answer":0,"name":"Russell","otherName":"Danielle","namedWug":[0,0,0,0],"otherWug":[0,0,0,1],"trial_type":"canvas-button-response","trial_index":38,"time_elapsed":50134,"internal_node_id":"0.0-4.0-0.7-2.7-1.7-0.7","turk_code":"7uwhv3rggt3j"},{"rt":129.79999995231628,"stimulus":"<div><b>Correct!</b></div><div> </div><div>Press any key to continue</div>","response":0,"first":"other","answer":0,"name":"Russell","otherName":"Danielle","namedWug":[0,0,0,0],"otherWug":[0,0,0,1],"trial_type":"html-keyboard-response","trial_index":39,"time_elapsed":50266,"internal_node_id":"0.0-4.0-0.7-2.7-1.7-1.7","turk_code":"7uwhv3rggt3j"},{"rt":860,"response":0,"namedWug":[1,1,0,0],"otherWug":[1,1,1,0],"name":"Theresa","otherName":"Lawrence","left":0,"trial_type":"canvas-button-response","trial_index":40,"time_elapsed":51128,"internal_node_id":"0.0-4.0-0.8-0.8","turk_code":"7uwhv3rggt3j","correct":false},{"rt":1705,"response":0,"name":"Theresa","otherName":"Lawrence","namedWug":[1,1,0,0],"otherWug":[1,1,1,0],"trialCorrect":false,"trial_type":"canvas-button-response","trial_index":41,"time_elapsed":52836,"internal_node_id":"0.0-4.0-0.8-1.8","turk_code":"7uwhv3rggt3j"},{"rt":1112,"response":0,"first":"other","answer":1,"name":"Theresa","otherName":"Lawrence","namedWug":[1,1,0,0],"otherWug":[1,1,1,0],"trial_type":"canvas-button-response","trial_index":42,"time_elapsed":53950,"internal_node_id":"0.0-4.0-0.8-2.8-0.8-0.8","turk_code":"7uwhv3rggt3j"},{"rt":346.89999997615814,"stimulus":"<div><b>Incorrect!</b></div><div> </div><div>Press any key to try again</div>","response":0,"first":"other","answer":1,"name":"Theresa","otherName":"Lawrence","namedWug":[1,1,0,0],"otherWug":[1,1,1,0],"trial_type":"html-keyboard-response","trial_index":43,"time_elapsed":54299,"internal_node_id":"0.0-4.0-0.8-2.8-0.8-1.8","turk_code":"7uwhv3rggt3j"},{"rt":700.0999999046326,"response":1,"first":"other","answer":1,"name":"Theresa","otherName":"Lawrence","namedWug":[1,1,0,0],"otherWug":[1,1,1,0],"trial_type":"canvas-button-response","trial_index":44,"time_elapsed":55001,"internal_node_id":"0.0-4.0-0.8-2.8-0.9-0.9","turk_code":"7uwhv3rggt3j"},{"rt":152.60000002384186,"stimulus":"<div><b>Correct!</b></div><div> </div><div>Press any key to continue</div>","response":1,"first":"other","answer":1,"name":"Theresa","otherName":"Lawrence","namedWug":[1,1,0,0],"otherWug":[1,1,1,0],"trial_type":"html-keyboard-response","trial_index":45,"time_elapsed":55155,"internal_node_id":"0.0-4.0-0.8-2.8-0.9-1.9","turk_code":"7uwhv3rggt3j"},{"rt":628.0999999046326,"response":0,"first":"other","answer":0,"name":"Theresa","otherName":"Lawrence","namedWug":[1,1,0,0],"otherWug":[1,1,1,0],"trial_type":"canvas-button-response","trial_index":46,"time_elapsed":55784,"internal_node_id":"0.0-4.0-0.8-2.8-1.8-0.8","turk_code":"7uwhv3rggt3j"},{"rt":117.70000004768372,"stimulus":"<div><b>Correct!</b></div><div> </div><div>Press any key to continue</div>","response":0,"first":"other","answer":0,"name":"Theresa","otherName":"Lawrence","namedWug":[1,1,0,0],"otherWug":[1,1,1,0],"trial_type":"html-keyboard-response","trial_index":47,"time_elapsed":55903,"internal_node_id":"0.0-4.0-0.8-2.8-1.8-1.8","turk_code":"7uwhv3rggt3j"},{"rt":1287.0999999046326,"response":0,"namedWug":[1,1,1,1],"otherWug":[0,0,0,0],"name":"Rose","otherName":"Russell","left":0,"trial_type":"canvas-button-response","trial_index":48,"time_elapsed":57193,"internal_node_id":"0.0-4.0-0.9-0.9","turk_code":"7uwhv3rggt3j","correct":false},{"rt":715.6999999284744,"response":0,"name":"Rose","otherName":"Russell","namedWug":[1,1,1,1],"otherWug":[0,0,0,0],"trialCorrect":false,"trial_type":"canvas-button-response","trial_index":49,"time_elapsed":57911,"internal_node_id":"0.0-4.0-0.9-1.9","turk_code":"7uwhv3rggt3j"},{"rt":741.0999999046326,"response":0,"first":"named","answer":0,"name":"Rose","otherName":"Russell","namedWug":[1,1,1,1],"otherWug":[0,0,0,0],"trial_type":"canvas-button-response","trial_index":50,"time_elapsed":58655,"internal_node_id":"0.0-4.0-0.9-2.9-0.10-0.10","turk_code":"7uwhv3rggt3j"},{"rt":201.60000002384186,"stimulus":"<div><b>Correct!</b></div><div> </div><div>Press any key to continue</div>","response":0,"first":"named","answer":0,"name":"Rose","otherName":"Russell","namedWug":[1,1,1,1],"otherWug":[0,0,0,0],"trial_type":"html-keyboard-response","trial_index":51,"time_elapsed":58857,"internal_node_id":"0.0-4.0-0.9-2.9-0.10-1.10","turk_code":"7uwhv3rggt3j"},{"rt":611.5,"response":1,"first":"named","answer":1,"name":"Rose","otherName":"Russell","namedWug":[1,1,1,1],"otherWug":[0,0,0,0],"trial_type":"canvas-button-response","trial_index":52,"time_elapsed":59472,"internal_node_id":"0.0-4.0-0.9-2.9-1.9-0.9","turk_code":"7uwhv3rggt3j"},{"rt":115.89999997615814,"stimulus":"<div><b>Correct!</b></div><div> </div><div>Press any key to continue</div>","response":1,"first":"named","answer":1,"name":"Rose","otherName":"Russell","namedWug":[1,1,1,1],"otherWug":[0,0,0,0],"trial_type":"html-keyboard-response","trial_index":53,"time_elapsed":59589,"internal_node_id":"0.0-4.0-0.9-2.9-1.9-1.9","turk_code":"7uwhv3rggt3j"},{"rt":995.8999999761581,"response":1,"namedWug":[1,1,0,1],"otherWug":[1,1,1,1],"name":"Wayne","otherName":"Rose","left":1,"trial_type":"canvas-button-response","trial_index":54,"time_elapsed":60587,"internal_node_id":"0.0-4.0-0.10-0.10","turk_code":"7uwhv3rggt3j","correct":false},{"rt":974.2000000476837,"response":0,"name":"Wayne","otherName":"Rose","namedWug":[1,1,0,1],"otherWug":[1,1,1,1],"trialCorrect":false,"trial_type":"canvas-button-response","trial_index":55,"time_elapsed":61564,"internal_node_id":"0.0-4.0-0.10-1.10","turk_code":"7uwhv3rggt3j"},{"rt":1156.7000000476837,"response":0,"first":"named","answer":0,"name":"Wayne","otherName":"Rose","namedWug":[1,1,0,1],"otherWug":[1,1,1,1],"trial_type":"canvas-button-response","trial_index":56,"time_elapsed":62722,"internal_node_id":"0.0-4.0-0.10-2.10-0.11-0.11","turk_code":"7uwhv3rggt3j"},{"rt":387.10000002384186,"stimulus":"<div><b>Correct!</b></div><div> </div><div>Press any key to continue</div>","response":0,"first":"named","answer":0,"name":"Wayne","otherName":"Rose","namedWug":[1,1,0,1],"otherWug":[1,1,1,1],"trial_type":"html-keyboard-response","trial_index":57,"time_elapsed":63110,"internal_node_id":"0.0-4.0-0.10-2.10-0.11-1.11","turk_code":"7uwhv3rggt3j"},{"rt":669.1000000238419,"response":1,"first":"named","answer":1,"name":"Wayne","otherName":"Rose","namedWug":[1,1,0,1],"otherWug":[1,1,1,1],"trial_type":"canvas-button-response","trial_index":58,"time_elapsed":63782,"internal_node_id":"0.0-4.0-0.10-2.10-1.10-0.10","turk_code":"7uwhv3rggt3j"},{"rt":343.2000000476837,"stimulus":"<div><b>Correct!</b></div><div> </div><div>Press any key to continue</div>","response":1,"first":"named","answer":1,"name":"Wayne","otherName":"Rose","namedWug":[1,1,0,1],"otherWug":[1,1,1,1],"trial_type":"html-keyboard-response","trial_index":59,"time_elapsed":64127,"internal_node_id":"0.0-4.0-0.10-2.10-1.10-1.10","turk_code":"7uwhv3rggt3j"},{"rt":847.8999999761581,"response":0,"namedWug":[1,1,0,0],"otherWug":[1,1,0,1],"name":"Theresa","otherName":"Wayne","left":0,"trial_type":"canvas-button-response","trial_index":60,"time_elapsed":64977,"internal_node_id":"0.0-4.0-0.11-0.11","turk_code":"7uwhv3rggt3j","correct":false},{"rt":1177.6999999284744,"response":0,"name":"Theresa","otherName":"Wayne","namedWug":[1,1,0,0],"otherWug":[1,1,0,1],"trialCorrect":false,"trial_type":"canvas-button-response","trial_index":61,"time_elapsed":66157,"internal_node_id":"0.0-4.0-0.11-1.11","turk_code":"7uwhv3rggt3j"},{"rt":1218.8000000715256,"response":1,"first":"other","answer":1,"name":"Theresa","otherName":"Wayne","namedWug":[1,1,0,0],"otherWug":[1,1,0,1],"trial_type":"canvas-button-response","trial_index":62,"time_elapsed":67379,"internal_node_id":"0.0-4.0-0.11-2.11-0.12-0.12","turk_code":"7uwhv3rggt3j"},{"rt":168.5,"stimulus":"<div><b>Correct!</b></div><div> </div><div>Press any key to continue</div>","response":1,"first":"other","answer":1,"name":"Theresa","otherName":"Wayne","namedWug":[1,1,0,0],"otherWug":[1,1,0,1],"trial_type":"html-keyboard-response","trial_index":63,"time_elapsed":67549,"internal_node_id":"0.0-4.0-0.11-2.11-0.12-1.12","turk_code":"7uwhv3rggt3j"},{"rt":757,"response":0,"first":"other","answer":0,"name":"Theresa","otherName":"Wayne","namedWug":[1,1,0,0],"otherWug":[1,1,0,1],"trial_type":"canvas-button-response","trial_index":64,"time_elapsed":68309,"internal_node_id":"0.0-4.0-0.11-2.11-1.11-0.11","turk_code":"7uwhv3rggt3j"},{"rt":160.39999997615814,"stimulus":"<div><b>Correct!</b></div><div> </div><div>Press any key to continue</div>","response":0,"first":"other","answer":0,"name":"Theresa","otherName":"Wayne","namedWug":[1,1,0,0],"otherWug":[1,1,0,1],"trial_type":"html-keyboard-response","trial_index":65,"time_elapsed":68470,"internal_node_id":"0.0-4.0-0.11-2.11-1.11-1.11","turk_code":"7uwhv3rggt3j"},{"rt":839.5,"response":0,"namedWug":[1,1,1,0],"otherWug":[1,1,1,1],"name":"Lawrence","otherName":"Rose","left":0,"trial_type":"canvas-button-response","trial_index":66,"time_elapsed":69313,"internal_node_id":"0.0-4.0-0.12-0.12","turk_code":"7uwhv3rggt3j","correct":false},{"rt":956.7000000476837,"response":0,"name":"Lawrence","otherName":"Rose","namedWug":[1,1,1,0],"otherWug":[1,1,1,1],"trialCorrect":false,"trial_type":"canvas-button-response","trial_index":67,"time_elapsed":70272,"internal_node_id":"0.0-4.0-0.12-1.12","turk_code":"7uwhv3rggt3j"},{"rt":1357.5,"response":0,"first":"named","answer":0,"name":"Lawrence","otherName":"Rose","namedWug":[1,1,1,0],"otherWug":[1,1,1,1],"trial_type":"canvas-button-response","trial_index":68,"time_elapsed":71632,"internal_node_id":"0.0-4.0-0.12-2.12-0.13-0.13","turk_code":"7uwhv3rggt3j"},{"rt":296,"stimulus":"<div><b>Correct!</b></div><div> </div><div>Press any key to continue</div>","response":0,"first":"named","answer":0,"name":"Lawrence","otherName":"Rose","namedWug":[1,1,1,0],"otherWug":[1,1,1,1],"trial_type":"html-keyboard-response","trial_index":69,"time_elapsed":71930,"internal_node_id":"0.0-4.0-0.12-2.12-0.13-1.13","turk_code":"7uwhv3rggt3j"},{"rt":596.5,"response":1,"first":"named","answer":1,"name":"Lawrence","otherName":"Rose","namedWug":[1,1,1,0],"otherWug":[1,1,1,1],"trial_type":"canvas-button-response","trial_index":70,"time_elapsed":72529,"internal_node_id":"0.0-4.0-0.12-2.12-1.12-0.12","turk_code":"7uwhv3rggt3j"},{"rt":205.30000007152557,"stimulus":"<div><b>Correct!</b></div><div> </div><div>Press any key to continue</div>","response":1,"first":"named","answer":1,"name":"Lawrence","otherName":"Rose","namedWug":[1,1,1,0],"otherWug":[1,1,1,1],"trial_type":"html-keyboard-response","trial_index":71,"time_elapsed":72736,"internal_node_id":"0.0-4.0-0.12-2.12-1.12-1.12","turk_code":"7uwhv3rggt3j"},{"rt":687.2999999523163,"response":1,"namedWug":[0,0,1,0],"otherWug":[0,0,1,1],"name":"Ray","otherName":"Vincent","left":0,"trial_type":"canvas-button-response","trial_index":72,"time_elapsed":73426,"internal_node_id":"0.0-4.0-0.13-0.13","turk_code":"7uwhv3rggt3j","correct":true},{"rt":1073.3999999761581,"response":0,"name":"Ray","otherName":"Vincent","namedWug":[0,0,1,0],"otherWug":[0,0,1,1],"trialCorrect":true,"trial_type":"canvas-button-response","trial_index":73,"time_elapsed":74502,"internal_node_id":"0.0-4.0-0.13-1.13","turk_code":"7uwhv3rggt3j"},{"rt":708.3999999761581,"response":0,"namedWug":[0,0,1,1],"otherWug":[1,1,0,0],"name":"Vincent","otherName":"Theresa","left":1,"trial_type":"canvas-button-response","trial_index":74,"time_elapsed":75213,"internal_node_id":"0.0-4.0-0.14-0.14","turk_code":"7uwhv3rggt3j","correct":true},{"rt":805.3999999761581,"response":0,"name":"Vincent","otherName":"Theresa","namedWug":[0,0,1,1],"otherWug":[1,1,0,0],"trialCorrect":true,"trial_type":"canvas-button-response","trial_index":75,"time_elapsed":76021,"internal_node_id":"0.0-4.0-0.14-1.14","turk_code":"7uwhv3rggt3j"},{"rt":757.2000000476837,"response":1,"namedWug":[0,0,0,1],"otherWug":[0,0,1,1],"name":"Danielle","otherName":"Vincent","left":0,"trial_type":"canvas-button-response","trial_index":76,"time_elapsed":76781,"internal_node_id":"0.0-4.0-0.15-0.15","turk_code":"7uwhv3rggt3j","correct":true},{"rt":821.7999999523163,"response":0,"name":"Danielle","otherName":"Vincent","namedWug":[0,0,0,1],"otherWug":[0,0,1,1],"trialCorrect":true,"trial_type":"canvas-button-response","trial_index":77,"time_elapsed":77605,"internal_node_id":"0.0-4.0-0.15-1.15","turk_code":"7uwhv3rggt3j"},{"rt":734.2999999523163,"response":0,"namedWug":[1,1,1,0],"otherWug":[0,0,0,1],"name":"Lawrence","otherName":"Danielle","left":1,"trial_type":"canvas-button-response","trial_index":78,"time_elapsed":78342,"internal_node_id":"0.0-4.0-0.16-0.16","turk_code":"7uwhv3rggt3j","correct":true},{"rt":917.0999999046326,"response":0,"name":"Lawrence","otherName":"Danielle","namedWug":[1,1,1,0],"otherWug":[0,0,0,1],"trialCorrect":true,"trial_type":"canvas-button-response","trial_index":79,"time_elapsed":79263,"internal_node_id":"0.0-4.0-0.16-1.16","turk_code":"7uwhv3rggt3j"},{"rt":959.6000000238419,"response":1,"namedWug":[1,1,0,1],"otherWug":[0,0,1,0],"name":"Wayne","otherName":"Ray","left":0,"trial_type":"canvas-button-response","trial_index":80,"time_elapsed":80225,"internal_node_id":"0.0-4.0-0.17-0.17","turk_code":"7uwhv3rggt3j","correct":true},{"rt":773.6000000238419,"response":0,"name":"Wayne","otherName":"Ray","namedWug":[1,1,0,1],"otherWug":[0,0,1,0],"trialCorrect":true,"trial_type":"canvas-button-response","trial_index":81,"time_elapsed":81001,"internal_node_id":"0.0-4.0-0.17-1.17","turk_code":"7uwhv3rggt3j"},{"rt":1089.8999999761581,"response":1,"namedWug":[0,0,0,1],"otherWug":[1,1,1,0],"name":"Danielle","otherName":"Lawrence","left":0,"trial_type":"canvas-button-response","trial_index":82,"time_elapsed":82093,"internal_node_id":"0.0-4.0-0.18-0.18","turk_code":"7uwhv3rggt3j","correct":true},{"rt":845.8999999761581,"response":0,"name":"Danielle","otherName":"Lawrence","namedWug":[0,0,0,1],"otherWug":[1,1,1,0],"trialCorrect":true,"trial_type":"canvas-button-response","trial_index":83,"time_elapsed":82942,"internal_node_id":"0.0-4.0-0.18-1.18","turk_code":"7uwhv3rggt3j"},{"rt":1274.7000000476837,"response":1,"namedWug":[0,0,1,0],"otherWug":[1,1,0,1],"name":"Ray","otherName":"Wayne","left":1,"trial_type":"canvas-button-response","trial_index":84,"time_elapsed":84219,"internal_node_id":"0.0-4.0-0.19-0.19","turk_code":"7uwhv3rggt3j","correct":false},{"rt":958.3000000715256,"response":0,"name":"Ray","otherName":"Wayne","namedWug":[0,0,1,0],"otherWug":[1,1,0,1],"trialCorrect":false,"trial_type":"canvas-button-response","trial_index":85,"time_elapsed":85180,"internal_node_id":"0.0-4.0-0.19-1.19","turk_code":"7uwhv3rggt3j"},{"rt":1002.1000000238419,"response":1,"first":"other","answer":1,"name":"Ray","otherName":"Wayne","namedWug":[0,0,1,0],"otherWug":[1,1,0,1],"trial_type":"canvas-button-response","trial_index":86,"time_elapsed":86188,"internal_node_id":"0.0-4.0-0.19-2.19-0.20-0.20","turk_code":"7uwhv3rggt3j"},{"rt":240.79999995231628,"stimulus":"<div><b>Correct!</b></div><div> </div><div>Press any key to continue</div>","response":1,"first":"other","answer":1,"name":"Ray","otherName":"Wayne","namedWug":[0,0,1,0],"otherWug":[1,1,0,1],"trial_type":"html-keyboard-response","trial_index":87,"time_elapsed":86430,"internal_node_id":"0.0-4.0-0.19-2.19-0.20-1.20","turk_code":"7uwhv3rggt3j"},{"rt":511.2999999523163,"response":0,"first":"other","answer":0,"name":"Ray","otherName":"Wayne","namedWug":[0,0,1,0],"otherWug":[1,1,0,1],"trial_type":"canvas-button-response","trial_index":88,"time_elapsed":86945,"internal_node_id":"0.0-4.0-0.19-2.19-1.19-0.19","turk_code":"7uwhv3rggt3j"},{"rt":133.20000004768372,"stimulus":"<div><b>Correct!</b></div><div> </div><div>Press any key to continue</div>","response":0,"first":"other","answer":0,"name":"Ray","otherName":"Wayne","namedWug":[0,0,1,0],"otherWug":[1,1,0,1],"trial_type":"html-keyboard-response","trial_index":89,"time_elapsed":87079,"internal_node_id":"0.0-4.0-0.19-2.19-1.19-1.19","turk_code":"7uwhv3rggt3j"},{"rt":549.5,"response":0,"namedWug":[1,1,1,1],"otherWug":[0,0,0,0],"name":"Rose","otherName":"Russell","left":1,"trial_type":"canvas-button-response","trial_index":90,"time_elapsed":87631,"internal_node_id":"0.0-4.0-0.20-0.20","turk_code":"7uwhv3rggt3j","correct":true},{"rt":829.2000000476837,"response":0,"name":"Rose","otherName":"Russell","namedWug":[1,1,1,1],"otherWug":[0,0,0,0],"trialCorrect":true,"trial_type":"canvas-button-response","trial_index":91,"time_elapsed":88463,"internal_node_id":"0.0-4.0-0.20-1.20","turk_code":"7uwhv3rggt3j"},{"rt":579.8000000715256,"response":1,"namedWug":[0,0,0,0],"otherWug":[0,0,1,0],"name":"Russell","otherName":"Ray","left":0,"trial_type":"canvas-button-response","trial_index":92,"time_elapsed":89046,"internal_node_id":"0.0-4.0-0.21-0.21","turk_code":"7uwhv3rggt3j","correct":true},{"rt":830.2999999523163,"response":0,"name":"Russell","otherName":"Ray","namedWug":[0,0,0,0],"otherWug":[0,0,1,0],"trialCorrect":true,"trial_type":"canvas-button-response","trial_index":93,"time_elapsed":89879,"internal_node_id":"0.0-4.0-0.21-1.21","turk_code":"7uwhv3rggt3j"},{"rt":604.6000000238419,"response":0,"namedWug":[0,0,1,1],"otherWug":[1,1,0,0],"name":"Vincent","otherName":"Theresa","left":0,"trial_type":"canvas-button-response","trial_index":94,"time_elapsed":90486,"internal_node_id":"0.0-4.0-0.22-0.22","turk_code":"7uwhv3rggt3j","correct":false},{"rt":739.7000000476837,"response":0,"name":"Vincent","otherName":"Theresa","namedWug":[0,0,1,1],"otherWug":[1,1,0,0],"trialCorrect":false,"trial_type":"canvas-button-response","trial_index":95,"time_elapsed":91228,"internal_node_id":"0.0-4.0-0.22-1.22","turk_code":"7uwhv3rggt3j"},{"rt":1147.1000000238419,"response":1,"first":"other","answer":1,"name":"Vincent","otherName":"Theresa","namedWug":[0,0,1,1],"otherWug":[1,1,0,0],"trial_type":"canvas-button-response","trial_index":96,"time_elapsed":92377,"internal_node_id":"0.0-4.0-0.22-2.22-0.23-0.23","turk_code":"7uwhv3rggt3j"},{"rt":412.5,"stimulus":"<div><b>Correct!</b></div><div> </div><div>Press any key to continue</div>","response":1,"first":"other","answer":1,"name":"Vincent","otherName":"Theresa","namedWug":[0,0,1,1],"otherWug":[1,1,0,0],"trial_type":"html-keyboard-response","trial_index":97,"time_elapsed":92792,"internal_node_id":"0.0-4.0-0.22-2.22-0.23-1.23","turk_code":"7uwhv3rggt3j"},{"rt":804,"response":0,"first":"other","answer":0,"name":"Vincent","otherName":"Theresa","namedWug":[0,0,1,1],"otherWug":[1,1,0,0],"trial_type":"canvas-button-response","trial_index":98,"time_elapsed":93599,"internal_node_id":"0.0-4.0-0.22-2.22-1.22-0.22","turk_code":"7uwhv3rggt3j"},{"rt":229.30000007152557,"stimulus":"<div><b>Correct!</b></div><div> </div><div>Press any key to continue</div>","response":0,"first":"other","answer":0,"name":"Vincent","otherName":"Theresa","namedWug":[0,0,1,1],"otherWug":[1,1,0,0],"trial_type":"html-keyboard-response","trial_index":99,"time_elapsed":93829,"internal_node_id":"0.0-4.0-0.22-2.22-1.22-1.22","turk_code":"7uwhv3rggt3j"},{"rt":1125,"response":0,"namedWug":[0,0,0,0],"otherWug":[0,0,0,1],"name":"Russell","otherName":"Danielle","left":1,"trial_type":"canvas-button-response","trial_index":100,"time_elapsed":94957,"internal_node_id":"0.0-4.0-0.23-0.23","turk_code":"7uwhv3rggt3j","correct":true},{"rt":725.2000000476837,"response":0,"name":"Russell","otherName":"Danielle","namedWug":[0,0,0,0],"otherWug":[0,0,0,1],"trialCorrect":true,"trial_type":"canvas-button-response","trial_index":101,"time_elapsed":95683,"internal_node_id":"0.0-4.0-0.23-1.23","turk_code":"7uwhv3rggt3j"},{"rt":781.4000000953674,"response":1,"namedWug":[1,1,0,0],"otherWug":[1,1,1,0],"name":"Theresa","otherName":"Lawrence","left":0,"trial_type":"canvas-button-response","trial_index":102,"time_elapsed":96467,"internal_node_id":"0.0-4.0-0.24-0.24","turk_code":"7uwhv3rggt3j","correct":true},{"rt":773.8999999761581,"response":0,"name":"Theresa","otherName":"Lawrence","namedWug":[1,1,0,0],"otherWug":[1,1,1,0],"trialCorrect":true,"trial_type":"canvas-button-response","trial_index":103,"time_elapsed":97244,"internal_node_id":"0.0-4.0-0.24-1.24","turk_code":"7uwhv3rggt3j"},{"rt":718.3000000715256,"response":0,"namedWug":[1,1,1,1],"otherWug":[0,0,0,0],"name":"Rose","otherName":"Russell","left":1,"trial_type":"canvas-button-response","trial_index":104,"time_elapsed":97965,"internal_node_id":"0.0-4.0-0.25-0.25","turk_code":"7uwhv3rggt3j","correct":true},{"rt":917.6000000238419,"response":0,"name":"Rose","otherName":"Russell","namedWug":[1,1,1,1],"otherWug":[0,0,0,0],"trialCorrect":true,"trial_type":"canvas-button-response","trial_index":105,"time_elapsed":98884,"internal_node_id":"0.0-4.0-0.25-1.25","turk_code":"7uwhv3rggt3j"},{"rt":1598.6999999284744,"response":0,"namedWug":[1,1,0,1],"otherWug":[1,1,1,1],"name":"Wayne","otherName":"Rose","left":1,"trial_type":"canvas-button-response","trial_index":106,"time_elapsed":100486,"internal_node_id":"0.0-4.0-0.26-0.26","turk_code":"7uwhv3rggt3j","correct":true},{"rt":879.2000000476837,"response":0,"name":"Wayne","otherName":"Rose","namedWug":[1,1,0,1],"otherWug":[1,1,1,1],"trialCorrect":true,"trial_type":"canvas-button-response","trial_index":107,"time_elapsed":101367,"internal_node_id":"0.0-4.0-0.26-1.26","turk_code":"7uwhv3rggt3j"},{"rt":1880.7999999523163,"response":0,"namedWug":[1,1,0,0],"otherWug":[1,1,0,1],"name":"Theresa","otherName":"Wayne","left":0,"trial_type":"canvas-button-response","trial_index":108,"time_elapsed":103251,"internal_node_id":"0.0-4.0-0.27-0.27","turk_code":"7uwhv3rggt3j","correct":false},{"rt":1452.8000000715256,"response":0,"name":"Theresa","otherName":"Wayne","namedWug":[1,1,0,0],"otherWug":[1,1,0,1],"trialCorrect":false,"trial_type":"canvas-button-response","trial_index":109,"time_elapsed":104707,"internal_node_id":"0.0-4.0-0.27-1.27","turk_code":"7uwhv3rggt3j"},{"rt":1111.5,"response":1,"first":"other","answer":1,"name":"Theresa","otherName":"Wayne","namedWug":[1,1,0,0],"otherWug":[1,1,0,1],"trial_type":"canvas-button-response","trial_index":110,"time_elapsed":105821,"internal_node_id":"0.0-4.0-0.27-2.27-0.28-0.28","turk_code":"7uwhv3rggt3j"},{"rt":259.1999999284744,"stimulus":"<div><b>Correct!</b></div><div> </div><div>Press any key to continue</div>","response":1,"first":"other","answer":1,"name":"Theresa","otherName":"Wayne","namedWug":[1,1,0,0],"otherWug":[1,1,0,1],"trial_type":"html-keyboard-response","trial_index":111,"time_elapsed":106081,"internal_node_id":"0.0-4.0-0.27-2.27-0.28-1.28","turk_code":"7uwhv3rggt3j"},{"rt":521.6000000238419,"response":0,"first":"other","answer":0,"name":"Theresa","otherName":"Wayne","namedWug":[1,1,0,0],"otherWug":[1,1,0,1],"trial_type":"canvas-button-response","trial_index":112,"time_elapsed":106605,"internal_node_id":"0.0-4.0-0.27-2.27-1.27-0.27","turk_code":"7uwhv3rggt3j"},{"rt":131,"stimulus":"<div><b>Correct!</b></div><div> </div><div>Press any key to continue</div>","response":0,"first":"other","answer":0,"name":"Theresa","otherName":"Wayne","namedWug":[1,1,0,0],"otherWug":[1,1,0,1],"trial_type":"html-keyboard-response","trial_index":113,"time_elapsed":106738,"internal_node_id":"0.0-4.0-0.27-2.27-1.27-1.27","turk_code":"7uwhv3rggt3j"},{"rt":770.7000000476837,"response":1,"namedWug":[1,1,1,0],"otherWug":[1,1,1,1],"name":"Lawrence","otherName":"Rose","left":0,"trial_type":"canvas-button-response","trial_index":114,"time_elapsed":107511,"internal_node_id":"0.0-4.0-0.28-0.28","turk_code":"7uwhv3rggt3j","correct":true},{"rt":959.1000000238419,"response":0,"name":"Lawrence","otherName":"Rose","namedWug":[1,1,1,0],"otherWug":[1,1,1,1],"trialCorrect":true,"trial_type":"canvas-button-response","trial_index":115,"time_elapsed":108473,"internal_node_id":"0.0-4.0-0.28-1.28","turk_code":"7uwhv3rggt3j"},{"rt":934.8999999761581,"response":0,"namedWug":[0,0,1,0],"otherWug":[0,0,1,1],"name":"Ray","otherName":"Vincent","left":1,"trial_type":"canvas-button-response","trial_index":116,"time_elapsed":109411,"internal_node_id":"0.0-4.0-0.29-0.29","turk_code":"7uwhv3rggt3j","correct":true},{"rt":1059.2999999523163,"response":0,"name":"Ray","otherName":"Vincent","namedWug":[0,0,1,0],"otherWug":[0,0,1,1],"trialCorrect":true,"trial_type":"canvas-button-response","trial_index":117,"time_elapsed":110472,"internal_node_id":"0.0-4.0-0.29-1.29","turk_code":"7uwhv3rggt3j"},{"rt":1353.3999999761581,"response":1,"namedWug":[0,0,1,1],"otherWug":[1,1,0,0],"name":"Vincent","otherName":"Theresa","left":0,"trial_type":"canvas-button-response","trial_index":118,"time_elapsed":111828,"internal_node_id":"0.0-4.0-0.30-0.30","turk_code":"7uwhv3rggt3j","correct":true},{"rt":660.3999999761581,"response":0,"name":"Vincent","otherName":"Theresa","namedWug":[0,0,1,1],"otherWug":[1,1,0,0],"trialCorrect":true,"trial_type":"canvas-button-response","trial_index":119,"time_elapsed":112491,"internal_node_id":"0.0-4.0-0.30-1.30","turk_code":"7uwhv3rggt3j"},{"rt":1017,"response":0,"namedWug":[0,0,0,1],"otherWug":[0,0,1,1],"name":"Danielle","otherName":"Vincent","left":1,"trial_type":"canvas-button-response","trial_index":120,"time_elapsed":113511,"internal_node_id":"0.0-4.0-0.31-0.31","turk_code":"7uwhv3rggt3j","correct":true},{"rt":821.7999999523163,"response":0,"name":"Danielle","otherName":"Vincent","namedWug":[0,0,0,1],"otherWug":[0,0,1,1],"trialCorrect":true,"trial_type":"canvas-button-response","trial_index":121,"time_elapsed":114336,"internal_node_id":"0.0-4.0-0.31-1.31","turk_code":"7uwhv3rggt3j"},{"rt":1848.8999999761581,"response":0,"name":"Rose","name_choices":["Vincent","Ray","Lawrence","Theresa","Russell","Wayne","Danielle","Rose"],"wug":[1,1,1,1],"names":["Rose","Russell","Lawrence","Danielle","Wayne","Ray","Theresa","Vincent"],"trial_type":"canvas-button-response","trial_index":122,"time_elapsed":116188,"internal_node_id":"0.0-4.0-1.0-0.0-0.0","turk_code":"7uwhv3rggt3j"},{"rt":1522.7999999523163,"response":0,"name":"Rose","trial_type":"canvas-button-response","trial_index":123,"time_elapsed":117714,"internal_node_id":"0.0-4.0-1.0-0.0-1.0","turk_code":"7uwhv3rggt3j"},{"rt":3691.3000000715256,"response":6,"name":"Russell","name_choices":["Vincent","Ray","Lawrence","Theresa","Russell","Wayne","Danielle","Rose"],"wug":[0,0,0,0],"names":["Rose","Russell","Lawrence","Danielle","Wayne","Ray","Theresa","Vincent"],"trial_type":"canvas-button-response","trial_index":124,"time_elapsed":121410,"internal_node_id":"0.0-4.0-1.0-0.1-0.1","turk_code":"7uwhv3rggt3j"},{"rt":1824,"response":0,"name":"Russell","trial_type":"canvas-button-response","trial_index":125,"time_elapsed":123236,"internal_node_id":"0.0-4.0-1.0-0.1-1.1","turk_code":"7uwhv3rggt3j"},{"rt":2666.4000000953674,"response":7,"name":"Lawrence","name_choices":["Vincent","Ray","Lawrence","Theresa","Russell","Wayne","Danielle","Rose"],"wug":[1,1,1,0],"names":["Rose","Russell","Lawrence","Danielle","Wayne","Ray","Theresa","Vincent"],"trial_type":"canvas-button-response","trial_index":126,"time_elapsed":125905,"internal_node_id":"0.0-4.0-1.0-0.2-0.2","turk_code":"7uwhv3rggt3j"},{"rt":829.8999999761581,"response":0,"name":"Lawrence","trial_type":"canvas-button-response","trial_index":127,"time_elapsed":126737,"internal_node_id":"0.0-4.0-1.0-0.2-1.2","turk_code":"7uwhv3rggt3j"},{"rt":4048.2000000476837,"response":6,"name":"Danielle","name_choices":["Vincent","Ray","Lawrence","Theresa","Russell","Wayne","Danielle","Rose"],"wug":[0,0,0,1],"names":["Rose","Russell","Lawrence","Danielle","Wayne","Ray","Theresa","Vincent"],"trial_type":"canvas-button-response","trial_index":128,"time_elapsed":130788,"internal_node_id":"0.0-4.0-1.0-0.3-0.3","turk_code":"7uwhv3rggt3j"},{"rt":976,"response":0,"name":"Danielle","trial_type":"canvas-button-response","trial_index":129,"time_elapsed":131767,"internal_node_id":"0.0-4.0-1.0-0.3-1.3","turk_code":"7uwhv3rggt3j"},{"rt":2316,"response":3,"name":"Wayne","name_choices":["Vincent","Ray","Lawrence","Theresa","Russell","Wayne","Danielle","Rose"],"wug":[1,1,0,1],"names":["Rose","Russell","Lawrence","Danielle","Wayne","Ray","Theresa","Vincent"],"trial_type":"canvas-button-response","trial_index":130,"time_elapsed":134086,"internal_node_id":"0.0-4.0-1.0-0.4-0.4","turk_code":"7uwhv3rggt3j"},{"rt":943.1999999284744,"response":0,"name":"Wayne","trial_type":"canvas-button-response","trial_index":131,"time_elapsed":135032,"internal_node_id":"0.0-4.0-1.0-0.4-1.4","turk_code":"7uwhv3rggt3j"},{"rt":2060.899999976158,"response":1,"name":"Ray","name_choices":["Vincent","Ray","Lawrence","Theresa","Russell","Wayne","Danielle","Rose"],"wug":[0,0,1,0],"names":["Rose","Russell","Lawrence","Danielle","Wayne","Ray","Theresa","Vincent"],"trial_type":"canvas-button-response","trial_index":132,"time_elapsed":137094,"internal_node_id":"0.0-4.0-1.0-0.5-0.5","turk_code":"7uwhv3rggt3j"},{"rt":1131.1000000238419,"response":0,"name":"Ray","trial_type":"canvas-button-response","trial_index":133,"time_elapsed":138228,"internal_node_id":"0.0-4.0-1.0-0.5-1.5","turk_code":"7uwhv3rggt3j"},{"rt":1249,"response":0,"name":"Theresa","name_choices":["Vincent","Ray","Lawrence","Theresa","Russell","Wayne","Danielle","Rose"],"wug":[1,1,0,0],"names":["Rose","Russell","Lawrence","Danielle","Wayne","Ray","Theresa","Vincent"],"trial_type":"canvas-button-response","trial_index":134,"time_elapsed":139480,"internal_node_id":"0.0-4.0-1.0-0.6-0.6","turk_code":"7uwhv3rggt3j"},{"rt":926.1000000238419,"response":0,"name":"Theresa","trial_type":"canvas-button-response","trial_index":135,"time_elapsed":140408,"internal_node_id":"0.0-4.0-1.0-0.6-1.6","turk_code":"7uwhv3rggt3j"},{"rt":805.2000000476837,"response":5,"name":"Vincent","name_choices":["Vincent","Ray","Lawrence","Theresa","Russell","Wayne","Danielle","Rose"],"wug":[0,0,1,1],"names":["Rose","Russell","Lawrence","Danielle","Wayne","Ray","Theresa","Vincent"],"trial_type":"canvas-button-response","trial_index":136,"time_elapsed":141217,"internal_node_id":"0.0-4.0-1.0-0.7-0.7","turk_code":"7uwhv3rggt3j"},{"rt":1040.3999999761581,"response":0,"name":"Vincent","trial_type":"canvas-button-response","trial_index":137,"time_elapsed":142260,"internal_node_id":"0.0-4.0-1.0-0.7-1.7","turk_code":"7uwhv3rggt3j"},{"rt":1531.5,"response":1,"namedWug":[1,1,1,0],"otherWug":[0,0,0,1],"name":"Lawrence","otherName":"Danielle","left":1,"trial_type":"canvas-button-response","trial_index":138,"time_elapsed":143795,"internal_node_id":"0.0-4.1-0.32-0.32","turk_code":"7uwhv3rggt3j","correct":false},{"rt":832.6000000238419,"response":0,"name":"Lawrence","otherName":"Danielle","namedWug":[1,1,1,0],"otherWug":[0,0,0,1],"trialCorrect":false,"trial_type":"canvas-button-response","trial_index":139,"time_elapsed":144630,"internal_node_id":"0.0-4.1-0.32-1.32","turk_code":"7uwhv3rggt3j"},{"rt":626.6000000238419,"response":0,"first":"named","answer":0,"name":"Lawrence","otherName":"Danielle","namedWug":[1,1,1,0],"otherWug":[0,0,0,1],"trial_type":"canvas-button-response","trial_index":140,"time_elapsed":145260,"internal_node_id":"0.0-4.1-0.32-2.32-0.33-0.33","turk_code":"7uwhv3rggt3j"},{"rt":305.2999999523163,"stimulus":"<div><b>Correct!</b></div><div> </div><div>Press any key to continue</div>","response":0,"first":"named","answer":0,"name":"Lawrence","otherName":"Danielle","namedWug":[1,1,1,0],"otherWug":[0,0,0,1],"trial_type":"html-keyboard-response","trial_index":141,"time_elapsed":145566,"internal_node_id":"0.0-4.1-0.32-2.32-0.33-1.33","turk_code":"7uwhv3rggt3j"},{"rt":538.7999999523163,"response":1,"first":"named","answer":1,"name":"Lawrence","otherName":"Danielle","namedWug":[1,1,1,0],"otherWug":[0,0,0,1],"trial_type":"canvas-button-response","trial_index":142,"time_elapsed":146108,"internal_node_id":"0.0-4.1-0.32-2.32-1.32-0.32","turk_code":"7uwhv3rggt3j"},{"rt":205,"stimulus":"<div><b>Correct!</b></div><div> </div><div>Press any key to continue</div>","response":1,"first":"named","answer":1,"name":"Lawrence","otherName":"Danielle","namedWug":[1,1,1,0],"otherWug":[0,0,0,1],"trial_type":"html-keyboard-response","trial_index":143,"time_elapsed":146314,"internal_node_id":"0.0-4.1-0.32-2.32-1.32-1.32","turk_code":"7uwhv3rggt3j"},{"rt":833.7999999523163,"response":0,"namedWug":[1,1,0,1],"otherWug":[0,0,1,0],"name":"Wayne","otherName":"Ray","left":1,"trial_type":"canvas-button-response","trial_index":144,"time_elapsed":147151,"internal_node_id":"0.0-4.1-0.33-0.33","turk_code":"7uwhv3rggt3j","correct":true},{"rt":812.8000000715256,"response":0,"name":"Wayne","otherName":"Ray","namedWug":[1,1,0,1],"otherWug":[0,0,1,0],"trialCorrect":true,"trial_type":"canvas-button-response","trial_index":145,"time_elapsed":147966,"internal_node_id":"0.0-4.1-0.33-1.33","turk_code":"7uwhv3rggt3j"},{"rt":1075.2000000476837,"response":1,"namedWug":[0,0,0,1],"otherWug":[1,1,1,0],"name":"Danielle","otherName":"Lawrence","left":0,"trial_type":"canvas-button-response","trial_index":146,"time_elapsed":149043,"internal_node_id":"0.0-4.1-0.34-0.34","turk_code":"7uwhv3rggt3j","correct":true},{"rt":992.6000000238419,"response":0,"name":"Danielle","otherName":"Lawrence","namedWug":[0,0,0,1],"otherWug":[1,1,1,0],"trialCorrect":true,"trial_type":"canvas-button-response","trial_index":147,"time_elapsed":150037,"internal_node_id":"0.0-4.1-0.34-1.34","turk_code":"7uwhv3rggt3j"},{"rt":1324.0999999046326,"response":0,"namedWug":[0,0,1,0],"otherWug":[1,1,0,1],"name":"Ray","otherName":"Wayne","left":0,"trial_type":"canvas-button-response","trial_index":148,"time_elapsed":151363,"internal_node_id":"0.0-4.1-0.35-0.35","turk_code":"7uwhv3rggt3j","correct":false},{"rt":960,"response":0,"name":"Ray","otherName":"Wayne","namedWug":[0,0,1,0],"otherWug":[1,1,0,1],"trialCorrect":false,"trial_type":"canvas-button-response","trial_index":149,"time_elapsed":152326,"internal_node_id":"0.0-4.1-0.35-1.35","turk_code":"7uwhv3rggt3j"},{"rt":2486.9000000953674,"response":1,"first":"other","answer":1,"name":"Ray","otherName":"Wayne","namedWug":[0,0,1,0],"otherWug":[1,1,0,1],"trial_type":"canvas-button-response","trial_index":150,"time_elapsed":154816,"internal_node_id":"0.0-4.1-0.35-2.35-0.36-0.36","turk_code":"7uwhv3rggt3j"},{"rt":264.2000000476837,"stimulus":"<div><b>Correct!</b></div><div> </div><div>Press any key to continue</div>","response":1,"first":"other","answer":1,"name":"Ray","otherName":"Wayne","namedWug":[0,0,1,0],"otherWug":[1,1,0,1],"trial_type":"html-keyboard-response","trial_index":151,"time_elapsed":155081,"internal_node_id":"0.0-4.1-0.35-2.35-0.36-1.36","turk_code":"7uwhv3rggt3j"},{"rt":508.60000002384186,"response":0,"first":"other","answer":0,"name":"Ray","otherName":"Wayne","namedWug":[0,0,1,0],"otherWug":[1,1,0,1],"trial_type":"canvas-button-response","trial_index":152,"time_elapsed":155592,"internal_node_id":"0.0-4.1-0.35-2.35-1.35-0.35","turk_code":"7uwhv3rggt3j"},{"rt":148.29999995231628,"stimulus":"<div><b>Correct!</b></div><div> </div><div>Press any key to continue</div>","response":0,"first":"other","answer":0,"name":"Ray","otherName":"Wayne","namedWug":[0,0,1,0],"otherWug":[1,1,0,1],"trial_type":"html-keyboard-response","trial_index":153,"time_elapsed":155742,"internal_node_id":"0.0-4.1-0.35-2.35-1.35-1.35","turk_code":"7uwhv3rggt3j"},{"rt":638.6000000238419,"response":1,"namedWug":[1,1,1,1],"otherWug":[0,0,0,0],"name":"Rose","otherName":"Russell","left":0,"trial_type":"canvas-button-response","trial_index":154,"time_elapsed":156383,"internal_node_id":"0.0-4.1-0.36-0.36","turk_code":"7uwhv3rggt3j","correct":true},{"rt":743.2000000476837,"response":0,"name":"Rose","otherName":"Russell","namedWug":[1,1,1,1],"otherWug":[0,0,0,0],"trialCorrect":true,"trial_type":"canvas-button-response","trial_index":155,"time_elapsed":157128,"internal_node_id":"0.0-4.1-0.36-1.36","turk_code":"7uwhv3rggt3j"},{"rt":651.7999999523163,"response":0,"namedWug":[0,0,0,0],"otherWug":[0,0,1,0],"name":"Russell","otherName":"Ray","left":1,"trial_type":"canvas-button-response","trial_index":156,"time_elapsed":157782,"internal_node_id":"0.0-4.1-0.37-0.37","turk_code":"7uwhv3rggt3j","correct":true},{"rt":951.7000000476837,"response":0,"name":"Russell","otherName":"Ray","namedWug":[0,0,0,0],"otherWug":[0,0,1,0],"trialCorrect":true,"trial_type":"canvas-button-response","trial_index":157,"time_elapsed":158736,"internal_node_id":"0.0-4.1-0.37-1.37","turk_code":"7uwhv3rggt3j"},{"rt":619.8000000715256,"response":1,"namedWug":[0,0,1,1],"otherWug":[1,1,0,0],"name":"Vincent","otherName":"Theresa","left":1,"trial_type":"canvas-button-response","trial_index":158,"time_elapsed":159359,"internal_node_id":"0.0-4.1-0.38-0.38","turk_code":"7uwhv3rggt3j","correct":false},{"rt":796.8000000715256,"response":0,"name":"Vincent","otherName":"Theresa","namedWug":[0,0,1,1],"otherWug":[1,1,0,0],"trialCorrect":false,"trial_type":"canvas-button-response","trial_index":159,"time_elapsed":160158,"internal_node_id":"0.0-4.1-0.38-1.38","turk_code":"7uwhv3rggt3j"},{"rt":767.2999999523163,"response":0,"first":"named","answer":0,"name":"Vincent","otherName":"Theresa","namedWug":[0,0,1,1],"otherWug":[1,1,0,0],"trial_type":"canvas-button-response","trial_index":160,"time_elapsed":160927,"internal_node_id":"0.0-4.1-0.38-2.38-0.39-0.39","turk_code":"7uwhv3rggt3j"},{"rt":236.79999995231628,"stimulus":"<div><b>Correct!</b></div><div> </div><div>Press any key to continue</div>","response":0,"first":"named","answer":0,"name":"Vincent","otherName":"Theresa","namedWug":[0,0,1,1],"otherWug":[1,1,0,0],"trial_type":"html-keyboard-response","trial_index":161,"time_elapsed":161165,"internal_node_id":"0.0-4.1-0.38-2.38-0.39-1.39","turk_code":"7uwhv3rggt3j"},{"rt":623.7999999523163,"response":1,"first":"named","answer":1,"name":"Vincent","otherName":"Theresa","namedWug":[0,0,1,1],"otherWug":[1,1,0,0],"trial_type":"canvas-button-response","trial_index":162,"time_elapsed":161792,"internal_node_id":"0.0-4.1-0.38-2.38-1.38-0.38","turk_code":"7uwhv3rggt3j"},{"rt":229.09999990463257,"stimulus":"<div><b>Correct!</b></div><div> </div><div>Press any key to continue</div>","response":1,"first":"named","answer":1,"name":"Vincent","otherName":"Theresa","namedWug":[0,0,1,1],"otherWug":[1,1,0,0],"trial_type":"html-keyboard-response","trial_index":163,"time_elapsed":162022,"internal_node_id":"0.0-4.1-0.38-2.38-1.38-1.38","turk_code":"7uwhv3rggt3j"},{"rt":1134.1999999284744,"response":0,"namedWug":[0,0,0,0],"otherWug":[0,0,0,1],"name":"Russell","otherName":"Danielle","left":1,"trial_type":"canvas-button-response","trial_index":164,"time_elapsed":163159,"internal_node_id":"0.0-4.1-0.39-0.39","turk_code":"7uwhv3rggt3j","correct":true},{"rt":958.5,"response":0,"name":"Russell","otherName":"Danielle","namedWug":[0,0,0,0],"otherWug":[0,0,0,1],"trialCorrect":true,"trial_type":"canvas-button-response","trial_index":165,"time_elapsed":164120,"internal_node_id":"0.0-4.1-0.39-1.39","turk_code":"7uwhv3rggt3j"},{"rt":829.8999999761581,"response":1,"namedWug":[1,1,0,0],"otherWug":[1,1,1,0],"name":"Theresa","otherName":"Lawrence","left":0,"trial_type":"canvas-button-response","trial_index":166,"time_elapsed":164953,"internal_node_id":"0.0-4.1-0.40-0.40","turk_code":"7uwhv3rggt3j","correct":true},{"rt":911,"response":0,"name":"Theresa","otherName":"Lawrence","namedWug":[1,1,0,0],"otherWug":[1,1,1,0],"trialCorrect":true,"trial_type":"canvas-button-response","trial_index":167,"time_elapsed":165866,"internal_node_id":"0.0-4.1-0.40-1.40","turk_code":"7uwhv3rggt3j"},{"rt":911.2000000476837,"response":0,"namedWug":[1,1,1,1],"otherWug":[0,0,0,0],"name":"Rose","otherName":"Russell","left":0,"trial_type":"canvas-button-response","trial_index":168,"time_elapsed":166780,"internal_node_id":"0.0-4.1-0.41-0.41","turk_code":"7uwhv3rggt3j","correct":false},{"rt":821.7999999523163,"response":0,"name":"Rose","otherName":"Russell","namedWug":[1,1,1,1],"otherWug":[0,0,0,0],"trialCorrect":false,"trial_type":"canvas-button-response","trial_index":169,"time_elapsed":167604,"internal_node_id":"0.0-4.1-0.41-1.41","turk_code":"7uwhv3rggt3j"},{"rt":1009.7999999523163,"response":0,"first":"named","answer":0,"name":"Rose","otherName":"Russell","namedWug":[1,1,1,1],"otherWug":[0,0,0,0],"trial_type":"canvas-button-response","trial_index":170,"time_elapsed":168618,"internal_node_id":"0.0-4.1-0.41-2.41-0.42-0.42","turk_code":"7uwhv3rggt3j"},{"rt":289.59999990463257,"stimulus":"<div><b>Correct!</b></div><div> </div><div>Press any key to continue</div>","response":0,"first":"named","answer":0,"name":"Rose","otherName":"Russell","namedWug":[1,1,1,1],"otherWug":[0,0,0,0],"trial_type":"html-keyboard-response","trial_index":171,"time_elapsed":168909,"internal_node_id":"0.0-4.1-0.41-2.41-0.42-1.42","turk_code":"7uwhv3rggt3j"},{"rt":1636.2000000476837,"response":1,"first":"named","answer":1,"name":"Rose","otherName":"Russell","namedWug":[1,1,1,1],"otherWug":[0,0,0,0],"trial_type":"canvas-button-response","trial_index":172,"time_elapsed":170550,"internal_node_id":"0.0-4.1-0.41-2.41-1.41-0.41","turk_code":"7uwhv3rggt3j"},{"rt":314.5,"stimulus":"<div><b>Correct!</b></div><div> </div><div>Press any key to continue</div>","response":1,"first":"named","answer":1,"name":"Rose","otherName":"Russell","namedWug":[1,1,1,1],"otherWug":[0,0,0,0],"trial_type":"html-keyboard-response","trial_index":173,"time_elapsed":170866,"internal_node_id":"0.0-4.1-0.41-2.41-1.41-1.41","turk_code":"7uwhv3rggt3j"},{"rt":795.6999999284744,"response":0,"namedWug":[1,1,0,1],"otherWug":[1,1,1,1],"name":"Wayne","otherName":"Rose","left":1,"trial_type":"canvas-button-response","trial_index":174,"time_elapsed":171665,"internal_node_id":"0.0-4.1-0.42-0.42","turk_code":"7uwhv3rggt3j","correct":true},{"rt":828.3999999761581,"response":0,"name":"Wayne","otherName":"Rose","namedWug":[1,1,0,1],"otherWug":[1,1,1,1],"trialCorrect":true,"trial_type":"canvas-button-response","trial_index":175,"time_elapsed":172496,"internal_node_id":"0.0-4.1-0.42-1.42","turk_code":"7uwhv3rggt3j"},{"rt":1097.7000000476837,"response":1,"namedWug":[1,1,0,0],"otherWug":[1,1,0,1],"name":"Theresa","otherName":"Wayne","left":0,"trial_type":"canvas-button-response","trial_index":176,"time_elapsed":173596,"internal_node_id":"0.0-4.1-0.43-0.43","turk_code":"7uwhv3rggt3j","correct":true},{"rt":1040.5,"response":0,"name":"Theresa","otherName":"Wayne","namedWug":[1,1,0,0],"otherWug":[1,1,0,1],"trialCorrect":true,"trial_type":"canvas-button-response","trial_index":177,"time_elapsed":174639,"internal_node_id":"0.0-4.1-0.43-1.43","turk_code":"7uwhv3rggt3j"},{"rt":1113.5,"response":1,"namedWug":[1,1,1,0],"otherWug":[1,1,1,1],"name":"Lawrence","otherName":"Rose","left":0,"trial_type":"canvas-button-response","trial_index":178,"time_elapsed":175754,"internal_node_id":"0.0-4.1-0.44-0.44","turk_code":"7uwhv3rggt3j","correct":true},{"rt":854.3000000715256,"response":0,"name":"Lawrence","otherName":"Rose","namedWug":[1,1,1,0],"otherWug":[1,1,1,1],"trialCorrect":true,"trial_type":"canvas-button-response","trial_index":179,"time_elapsed":176611,"internal_node_id":"0.0-4.1-0.44-1.44","turk_code":"7uwhv3rggt3j"},{"rt":1646.8999999761581,"response":1,"namedWug":[0,0,1,0],"otherWug":[0,0,1,1],"name":"Ray","otherName":"Vincent","left":0,"trial_type":"canvas-button-response","trial_index":180,"time_elapsed":178261,"internal_node_id":"0.0-4.1-0.45-0.45","turk_code":"7uwhv3rggt3j","correct":true},{"rt":1347.3000000715256,"response":0,"name":"Ray","otherName":"Vincent","namedWug":[0,0,1,0],"otherWug":[0,0,1,1],"trialCorrect":true,"trial_type":"canvas-button-response","trial_index":181,"time_elapsed":179611,"internal_node_id":"0.0-4.1-0.45-1.45","turk_code":"7uwhv3rggt3j"},{"rt":1671.1999999284744,"response":0,"namedWug":[0,0,1,1],"otherWug":[1,1,0,0],"name":"Vincent","otherName":"Theresa","left":1,"trial_type":"canvas-button-response","trial_index":182,"time_elapsed":181285,"internal_node_id":"0.0-4.1-0.46-0.46","turk_code":"7uwhv3rggt3j","correct":true},{"rt":1065,"response":0,"name":"Vincent","otherName":"Theresa","namedWug":[0,0,1,1],"otherWug":[1,1,0,0],"trialCorrect":true,"trial_type":"canvas-button-response","trial_index":183,"time_elapsed":182353,"internal_node_id":"0.0-4.1-0.46-1.46","turk_code":"7uwhv3rggt3j"},{"rt":1103,"response":1,"namedWug":[0,0,0,1],"otherWug":[0,0,1,1],"name":"Danielle","otherName":"Vincent","left":0,"trial_type":"canvas-button-response","trial_index":184,"time_elapsed":183459,"internal_node_id":"0.0-4.1-0.47-0.47","turk_code":"7uwhv3rggt3j","correct":true},{"rt":1130.6000000238419,"response":0,"name":"Danielle","otherName":"Vincent","namedWug":[0,0,0,1],"otherWug":[0,0,1,1],"trialCorrect":true,"trial_type":"canvas-button-response","trial_index":185,"time_elapsed":184592,"internal_node_id":"0.0-4.1-0.47-1.47","turk_code":"7uwhv3rggt3j"},{"rt":765,"response":0,"namedWug":[1,1,1,0],"otherWug":[0,0,0,1],"name":"Lawrence","otherName":"Danielle","left":1,"trial_type":"canvas-button-response","trial_index":186,"time_elapsed":185360,"internal_node_id":"0.0-4.1-0.48-0.48","turk_code":"7uwhv3rggt3j","correct":true},{"rt":1054.5,"response":0,"name":"Lawrence","otherName":"Danielle","namedWug":[1,1,1,0],"otherWug":[0,0,0,1],"trialCorrect":true,"trial_type":"canvas-button-response","trial_index":187,"time_elapsed":186417,"internal_node_id":"0.0-4.1-0.48-1.48","turk_code":"7uwhv3rggt3j"},{"rt":951.5,"response":0,"namedWug":[1,1,0,1],"otherWug":[0,0,1,0],"name":"Wayne","otherName":"Ray","left":0,"trial_type":"canvas-button-response","trial_index":188,"time_elapsed":187371,"internal_node_id":"0.0-4.1-0.49-0.49","turk_code":"7uwhv3rggt3j","correct":false},{"rt":1114,"response":0,"name":"Wayne","otherName":"Ray","namedWug":[1,1,0,1],"otherWug":[0,0,1,0],"trialCorrect":false,"trial_type":"canvas-button-response","trial_index":189,"time_elapsed":188488,"internal_node_id":"0.0-4.1-0.49-1.49","turk_code":"7uwhv3rggt3j"},{"rt":992.1000000238419,"response":0,"first":"named","answer":0,"name":"Wayne","otherName":"Ray","namedWug":[1,1,0,1],"otherWug":[0,0,1,0],"trial_type":"canvas-button-response","trial_index":190,"time_elapsed":189483,"internal_node_id":"0.0-4.1-0.49-2.49-0.50-0.50","turk_code":"7uwhv3rggt3j"},{"rt":756.2000000476837,"stimulus":"<div><b>Correct!</b></div><div> </div><div>Press any key to continue</div>","response":0,"first":"named","answer":0,"name":"Wayne","otherName":"Ray","namedWug":[1,1,0,1],"otherWug":[0,0,1,0],"trial_type":"html-keyboard-response","trial_index":191,"time_elapsed":190241,"internal_node_id":"0.0-4.1-0.49-2.49-0.50-1.50","turk_code":"7uwhv3rggt3j"},{"rt":1382.6999999284744,"response":1,"first":"named","answer":1,"name":"Wayne","otherName":"Ray","namedWug":[1,1,0,1],"otherWug":[0,0,1,0],"trial_type":"canvas-button-response","trial_index":192,"time_elapsed":191626,"internal_node_id":"0.0-4.1-0.49-2.49-1.49-0.49","turk_code":"7uwhv3rggt3j"},{"rt":776.0999999046326,"stimulus":"<div><b>Correct!</b></div><div> </div><div>Press any key to continue</div>","response":1,"first":"named","answer":1,"name":"Wayne","otherName":"Ray","namedWug":[1,1,0,1],"otherWug":[0,0,1,0],"trial_type":"html-keyboard-response","trial_index":193,"time_elapsed":192403,"internal_node_id":"0.0-4.1-0.49-2.49-1.49-1.49","turk_code":"7uwhv3rggt3j"},{"rt":891.8999999761581,"response":0,"namedWug":[0,0,0,1],"otherWug":[1,1,1,0],"name":"Danielle","otherName":"Lawrence","left":0,"trial_type":"canvas-button-response","trial_index":194,"time_elapsed":193299,"internal_node_id":"0.0-4.1-0.50-0.50","turk_code":"7uwhv3rggt3j","correct":false},{"rt":1128.5,"response":0,"name":"Danielle","otherName":"Lawrence","namedWug":[0,0,0,1],"otherWug":[1,1,1,0],"trialCorrect":false,"trial_type":"canvas-button-response","trial_index":195,"time_elapsed":194430,"internal_node_id":"0.0-4.1-0.50-1.50","turk_code":"7uwhv3rggt3j"},{"rt":1120.7000000476837,"response":1,"first":"other","answer":1,"name":"Danielle","otherName":"Lawrence","namedWug":[0,0,0,1],"otherWug":[1,1,1,0],"trial_type":"canvas-button-response","trial_index":196,"time_elapsed":195555,"internal_node_id":"0.0-4.1-0.50-2.50-0.51-0.51","turk_code":"7uwhv3rggt3j"},{"rt":349.5,"stimulus":"<div><b>Correct!</b></div><div> </div><div>Press any key to continue</div>","response":1,"first":"other","answer":1,"name":"Danielle","otherName":"Lawrence","namedWug":[0,0,0,1],"otherWug":[1,1,1,0],"trial_type":"html-keyboard-response","trial_index":197,"time_elapsed":195906,"internal_node_id":"0.0-4.1-0.50-2.50-0.51-1.51","turk_code":"7uwhv3rggt3j"},{"rt":1434.3000000715256,"response":0,"first":"other","answer":0,"name":"Danielle","otherName":"Lawrence","namedWug":[0,0,0,1],"otherWug":[1,1,1,0],"trial_type":"canvas-button-response","trial_index":198,"time_elapsed":197343,"internal_node_id":"0.0-4.1-0.50-2.50-1.50-0.50","turk_code":"7uwhv3rggt3j"},{"rt":706.5,"stimulus":"<div><b>Correct!</b></div><div> </div><div>Press any key to continue</div>","response":0,"first":"other","answer":0,"name":"Danielle","otherName":"Lawrence","namedWug":[0,0,0,1],"otherWug":[1,1,1,0],"trial_type":"html-keyboard-response","trial_index":199,"time_elapsed":198051,"internal_node_id":"0.0-4.1-0.50-2.50-1.50-1.50","turk_code":"7uwhv3rggt3j"},{"rt":1131.4000000953674,"response":0,"namedWug":[0,0,1,0],"otherWug":[1,1,0,1],"name":"Ray","otherName":"Wayne","left":1,"trial_type":"canvas-button-response","trial_index":200,"time_elapsed":199185,"internal_node_id":"0.0-4.1-0.51-0.51","turk_code":"7uwhv3rggt3j","correct":true},{"rt":982.3000000715256,"response":0,"name":"Ray","otherName":"Wayne","namedWug":[0,0,1,0],"otherWug":[1,1,0,1],"trialCorrect":true,"trial_type":"canvas-button-response","trial_index":201,"time_elapsed":200170,"internal_node_id":"0.0-4.1-0.51-1.51","turk_code":"7uwhv3rggt3j"},{"rt":1412.2000000476837,"response":1,"namedWug":[1,1,1,1],"otherWug":[0,0,0,0],"name":"Rose","otherName":"Russell","left":1,"trial_type":"canvas-button-response","trial_index":202,"time_elapsed":201585,"internal_node_id":"0.0-4.1-0.52-0.52","turk_code":"7uwhv3rggt3j","correct":false},{"rt":790.3999999761581,"response":0,"name":"Rose","otherName":"Russell","namedWug":[1,1,1,1],"otherWug":[0,0,0,0],"trialCorrect":false,"trial_type":"canvas-button-response","trial_index":203,"time_elapsed":202379,"internal_node_id":"0.0-4.1-0.52-1.52","turk_code":"7uwhv3rggt3j"},{"rt":772.4000000953674,"response":0,"first":"named","answer":0,"name":"Rose","otherName":"Russell","namedWug":[1,1,1,1],"otherWug":[0,0,0,0],"trial_type":"canvas-button-response","trial_index":204,"time_elapsed":203154,"internal_node_id":"0.0-4.1-0.52-2.52-0.53-0.53","turk_code":"7uwhv3rggt3j"},{"rt":588.6999999284744,"stimulus":"<div><b>Correct!</b></div><div> </div><div>Press any key to continue</div>","response":0,"first":"named","answer":0,"name":"Rose","otherName":"Russell","namedWug":[1,1,1,1],"otherWug":[0,0,0,0],"trial_type":"html-keyboard-response","trial_index":205,"time_elapsed":203744,"internal_node_id":"0.0-4.1-0.52-2.52-0.53-1.53","turk_code":"7uwhv3rggt3j"},{"rt":837.3999999761581,"response":1,"first":"named","answer":1,"name":"Rose","otherName":"Russell","namedWug":[1,1,1,1],"otherWug":[0,0,0,0],"trial_type":"canvas-button-response","trial_index":206,"time_elapsed":204584,"internal_node_id":"0.0-4.1-0.52-2.52-1.52-0.52","turk_code":"7uwhv3rggt3j"},{"rt":701.5,"stimulus":"<div><b>Correct!</b></div><div> </div><div>Press any key to continue</div>","response":1,"first":"named","answer":1,"name":"Rose","otherName":"Russell","namedWug":[1,1,1,1],"otherWug":[0,0,0,0],"trial_type":"html-keyboard-response","trial_index":207,"time_elapsed":205288,"internal_node_id":"0.0-4.1-0.52-2.52-1.52-1.52","turk_code":"7uwhv3rggt3j"},{"rt":1460.6000000238419,"response":1,"namedWug":[0,0,0,0],"otherWug":[0,0,1,0],"name":"Russell","otherName":"Ray","left":0,"trial_type":"canvas-button-response","trial_index":208,"time_elapsed":206751,"internal_node_id":"0.0-4.1-0.53-0.53","turk_code":"7uwhv3rggt3j","correct":true},{"rt":798.2000000476837,"response":0,"name":"Russell","otherName":"Ray","namedWug":[0,0,0,0],"otherWug":[0,0,1,0],"trialCorrect":true,"trial_type":"canvas-button-response","trial_index":209,"time_elapsed":207552,"internal_node_id":"0.0-4.1-0.53-1.53","turk_code":"7uwhv3rggt3j"},{"rt":1250.7000000476837,"response":0,"namedWug":[0,0,1,1],"otherWug":[1,1,0,0],"name":"Vincent","otherName":"Theresa","left":0,"trial_type":"canvas-button-response","trial_index":210,"time_elapsed":208805,"internal_node_id":"0.0-4.1-0.54-0.54","turk_code":"7uwhv3rggt3j","correct":false},{"rt":895.7999999523163,"response":0,"name":"Vincent","otherName":"Theresa","namedWug":[0,0,1,1],"otherWug":[1,1,0,0],"trialCorrect":false,"trial_type":"canvas-button-response","trial_index":211,"time_elapsed":209703,"internal_node_id":"0.0-4.1-0.54-1.54","turk_code":"7uwhv3rggt3j"},{"rt":747.7999999523163,"response":0,"first":"other","answer":1,"name":"Vincent","otherName":"Theresa","namedWug":[0,0,1,1],"otherWug":[1,1,0,0],"trial_type":"canvas-button-response","trial_index":212,"time_elapsed":210455,"internal_node_id":"0.0-4.1-0.54-2.54-0.55-0.55","turk_code":"7uwhv3rggt3j"},{"rt":553.8999999761581,"stimulus":"<div><b>Incorrect!</b></div><div> </div><div>Press any key to try again</div>","response":0,"first":"other","answer":1,"name":"Vincent","otherName":"Theresa","namedWug":[0,0,1,1],"otherWug":[1,1,0,0],"trial_type":"html-keyboard-response","trial_index":213,"time_elapsed":211010,"internal_node_id":"0.0-4.1-0.54-2.54-0.55-1.55","turk_code":"7uwhv3rggt3j"},{"rt":662.4000000953674,"response":1,"first":"other","answer":1,"name":"Vincent","otherName":"Theresa","namedWug":[0,0,1,1],"otherWug":[1,1,0,0],"trial_type":"canvas-button-response","trial_index":214,"time_elapsed":211675,"internal_node_id":"0.0-4.1-0.54-2.54-0.56-0.56","turk_code":"7uwhv3rggt3j"},{"rt":286.5,"stimulus":"<div><b>Correct!</b></div><div> </div><div>Press any key to continue</div>","response":1,"first":"other","answer":1,"name":"Vincent","otherName":"Theresa","namedWug":[0,0,1,1],"otherWug":[1,1,0,0],"trial_type":"html-keyboard-response","trial_index":215,"time_elapsed":211964,"internal_node_id":"0.0-4.1-0.54-2.54-0.56-1.56","turk_code":"7uwhv3rggt3j"},{"rt":614.7000000476837,"response":0,"first":"other","answer":0,"name":"Vincent","otherName":"Theresa","namedWug":[0,0,1,1],"otherWug":[1,1,0,0],"trial_type":"canvas-button-response","trial_index":216,"time_elapsed":212581,"internal_node_id":"0.0-4.1-0.54-2.54-1.54-0.54","turk_code":"7uwhv3rggt3j"},{"rt":363.5,"stimulus":"<div><b>Correct!</b></div><div> </div><div>Press any key to continue</div>","response":0,"first":"other","answer":0,"name":"Vincent","otherName":"Theresa","namedWug":[0,0,1,1],"otherWug":[1,1,0,0],"trial_type":"html-keyboard-response","trial_index":217,"time_elapsed":212946,"internal_node_id":"0.0-4.1-0.54-2.54-1.54-1.54","turk_code":"7uwhv3rggt3j"},{"rt":577.6999999284744,"response":1,"namedWug":[0,0,0,0],"otherWug":[0,0,0,1],"name":"Russell","otherName":"Danielle","left":1,"trial_type":"canvas-button-response","trial_index":218,"time_elapsed":213527,"internal_node_id":"0.0-4.1-0.55-0.55","turk_code":"7uwhv3rggt3j","correct":false},{"rt":789.3999999761581,"response":0,"name":"Russell","otherName":"Danielle","namedWug":[0,0,0,0],"otherWug":[0,0,0,1],"trialCorrect":false,"trial_type":"canvas-button-response","trial_index":219,"time_elapsed":214319,"internal_node_id":"0.0-4.1-0.55-1.55","turk_code":"7uwhv3rggt3j"},{"rt":831,"response":0,"first":"named","answer":0,"name":"Russell","otherName":"Danielle","namedWug":[0,0,0,0],"otherWug":[0,0,0,1],"trial_type":"canvas-button-response","trial_index":220,"time_elapsed":215152,"internal_node_id":"0.0-4.1-0.55-2.55-0.57-0.57","turk_code":"7uwhv3rggt3j"},{"rt":177.10000002384186,"stimulus":"<div><b>Correct!</b></div><div> </div><div>Press any key to continue</div>","response":0,"first":"named","answer":0,"name":"Russell","otherName":"Danielle","namedWug":[0,0,0,0],"otherWug":[0,0,0,1],"trial_type":"html-keyboard-response","trial_index":221,"time_elapsed":215331,"internal_node_id":"0.0-4.1-0.55-2.55-0.57-1.57","turk_code":"7uwhv3rggt3j"},{"rt":521.7999999523163,"response":1,"first":"named","answer":1,"name":"Russell","otherName":"Danielle","namedWug":[0,0,0,0],"otherWug":[0,0,0,1],"trial_type":"canvas-button-response","trial_index":222,"time_elapsed":215855,"internal_node_id":"0.0-4.1-0.55-2.55-1.55-0.55","turk_code":"7uwhv3rggt3j"},{"rt":211.20000004768372,"stimulus":"<div><b>Correct!</b></div><div> </div><div>Press any key to continue</div>","response":1,"first":"named","answer":1,"name":"Russell","otherName":"Danielle","namedWug":[0,0,0,0],"otherWug":[0,0,0,1],"trial_type":"html-keyboard-response","trial_index":223,"time_elapsed":216067,"internal_node_id":"0.0-4.1-0.55-2.55-1.55-1.55","turk_code":"7uwhv3rggt3j"},{"rt":740.9000000953674,"response":0,"namedWug":[1,1,0,0],"otherWug":[1,1,1,0],"name":"Theresa","otherName":"Lawrence","left":0,"trial_type":"canvas-button-response","trial_index":224,"time_elapsed":216810,"internal_node_id":"0.0-4.1-0.56-0.56","turk_code":"7uwhv3rggt3j","correct":false},{"rt":1077.8999999761581,"response":0,"name":"Theresa","otherName":"Lawrence","namedWug":[1,1,0,0],"otherWug":[1,1,1,0],"trialCorrect":false,"trial_type":"canvas-button-response","trial_index":225,"time_elapsed":217892,"internal_node_id":"0.0-4.1-0.56-1.56","turk_code":"7uwhv3rggt3j"},{"rt":1016.3999999761581,"response":1,"first":"other","answer":1,"name":"Theresa","otherName":"Lawrence","namedWug":[1,1,0,0],"otherWug":[1,1,1,0],"trial_type":"canvas-button-response","trial_index":226,"time_elapsed":218910,"internal_node_id":"0.0-4.1-0.56-2.56-0.58-0.58","turk_code":"7uwhv3rggt3j"},{"rt":236.70000004768372,"stimulus":"<div><b>Correct!</b></div><div> </div><div>Press any key to continue</div>","response":1,"first":"other","answer":1,"name":"Theresa","otherName":"Lawrence","namedWug":[1,1,0,0],"otherWug":[1,1,1,0],"trial_type":"html-keyboard-response","trial_index":227,"time_elapsed":219149,"internal_node_id":"0.0-4.1-0.56-2.56-0.58-1.58","turk_code":"7uwhv3rggt3j"},{"rt":528.2999999523163,"response":0,"first":"other","answer":0,"name":"Theresa","otherName":"Lawrence","namedWug":[1,1,0,0],"otherWug":[1,1,1,0],"trial_type":"canvas-button-response","trial_index":228,"time_elapsed":219679,"internal_node_id":"0.0-4.1-0.56-2.56-1.56-0.56","turk_code":"7uwhv3rggt3j"},{"rt":139.79999995231628,"stimulus":"<div><b>Correct!</b></div><div> </div><div>Press any key to continue</div>","response":0,"first":"other","answer":0,"name":"Theresa","otherName":"Lawrence","namedWug":[1,1,0,0],"otherWug":[1,1,1,0],"trial_type":"html-keyboard-response","trial_index":229,"time_elapsed":219821,"internal_node_id":"0.0-4.1-0.56-2.56-1.56-1.56","turk_code":"7uwhv3rggt3j"},{"rt":898.7999999523163,"response":1,"namedWug":[1,1,1,1],"otherWug":[0,0,0,0],"name":"Rose","otherName":"Russell","left":1,"trial_type":"canvas-button-response","trial_index":230,"time_elapsed":220722,"internal_node_id":"0.0-4.1-0.57-0.57","turk_code":"7uwhv3rggt3j","correct":false},{"rt":765.1000000238419,"response":0,"name":"Rose","otherName":"Russell","namedWug":[1,1,1,1],"otherWug":[0,0,0,0],"trialCorrect":false,"trial_type":"canvas-button-response","trial_index":231,"time_elapsed":221490,"internal_node_id":"0.0-4.1-0.57-1.57","turk_code":"7uwhv3rggt3j"},{"rt":1137,"response":0,"first":"named","answer":0,"name":"Rose","otherName":"Russell","namedWug":[1,1,1,1],"otherWug":[0,0,0,0],"trial_type":"canvas-button-response","trial_index":232,"time_elapsed":222630,"internal_node_id":"0.0-4.1-0.57-2.57-0.59-0.59","turk_code":"7uwhv3rggt3j"},{"rt":283.90000009536743,"stimulus":"<div><b>Correct!</b></div><div> </div><div>Press any key to continue</div>","response":0,"first":"named","answer":0,"name":"Rose","otherName":"Russell","namedWug":[1,1,1,1],"otherWug":[0,0,0,0],"trial_type":"html-keyboard-response","trial_index":233,"time_elapsed":222915,"internal_node_id":"0.0-4.1-0.57-2.57-0.59-1.59","turk_code":"7uwhv3rggt3j"},{"rt":576.8000000715256,"response":1,"first":"named","answer":1,"name":"Rose","otherName":"Russell","namedWug":[1,1,1,1],"otherWug":[0,0,0,0],"trial_type":"canvas-button-response","trial_index":234,"time_elapsed":223494,"internal_node_id":"0.0-4.1-0.57-2.57-1.57-0.57","turk_code":"7uwhv3rggt3j"},{"rt":130.09999990463257,"stimulus":"<div><b>Correct!</b></div><div> </div><div>Press any key to continue</div>","response":1,"first":"named","answer":1,"name":"Rose","otherName":"Russell","namedWug":[1,1,1,1],"otherWug":[0,0,0,0],"trial_type":"html-keyboard-response","trial_index":235,"time_elapsed":223626,"internal_node_id":"0.0-4.1-0.57-2.57-1.57-1.57","turk_code":"7uwhv3rggt3j"},{"rt":1184.2000000476837,"response":0,"namedWug":[1,1,0,1],"otherWug":[1,1,1,1],"name":"Wayne","otherName":"Rose","left":1,"trial_type":"canvas-button-response","trial_index":236,"time_elapsed":224813,"internal_node_id":"0.0-4.1-0.58-0.58","turk_code":"7uwhv3rggt3j","correct":true},{"rt":1048.2000000476837,"response":0,"name":"Wayne","otherName":"Rose","namedWug":[1,1,0,1],"otherWug":[1,1,1,1],"trialCorrect":true,"trial_type":"canvas-button-response","trial_index":237,"time_elapsed":225863,"internal_node_id":"0.0-4.1-0.58-1.58","turk_code":"7uwhv3rggt3j"},{"rt":1072.4000000953674,"response":1,"namedWug":[1,1,0,0],"otherWug":[1,1,0,1],"name":"Theresa","otherName":"Wayne","left":0,"trial_type":"canvas-button-response","trial_index":238,"time_elapsed":226939,"internal_node_id":"0.0-4.1-0.59-0.59","turk_code":"7uwhv3rggt3j","correct":true},{"rt":983.7000000476837,"response":0,"name":"Theresa","otherName":"Wayne","namedWug":[1,1,0,0],"otherWug":[1,1,0,1],"trialCorrect":true,"trial_type":"canvas-button-response","trial_index":239,"time_elapsed":227925,"internal_node_id":"0.0-4.1-0.59-1.59","turk_code":"7uwhv3rggt3j"},{"rt":945,"response":0,"namedWug":[1,1,1,0],"otherWug":[1,1,1,1],"name":"Lawrence","otherName":"Rose","left":0,"trial_type":"canvas-button-response","trial_index":240,"time_elapsed":228873,"internal_node_id":"0.0-4.1-0.60-0.60","turk_code":"7uwhv3rggt3j","correct":false},{"rt":1402.5,"response":0,"name":"Lawrence","otherName":"Rose","namedWug":[1,1,1,0],"otherWug":[1,1,1,1],"trialCorrect":false,"trial_type":"canvas-button-response","trial_index":241,"time_elapsed":230280,"internal_node_id":"0.0-4.1-0.60-1.60","turk_code":"7uwhv3rggt3j"},{"rt":1346.3000000715256,"response":1,"first":"other","answer":1,"name":"Lawrence","otherName":"Rose","namedWug":[1,1,1,0],"otherWug":[1,1,1,1],"trial_type":"canvas-button-response","trial_index":242,"time_elapsed":231628,"internal_node_id":"0.0-4.1-0.60-2.60-0.62-0.62","turk_code":"7uwhv3rggt3j"},{"rt":209.20000004768372,"stimulus":"<div><b>Correct!</b></div><div> </div><div>Press any key to continue</div>","response":1,"first":"other","answer":1,"name":"Lawrence","otherName":"Rose","namedWug":[1,1,1,0],"otherWug":[1,1,1,1],"trial_type":"html-keyboard-response","trial_index":243,"time_elapsed":231839,"internal_node_id":"0.0-4.1-0.60-2.60-0.62-1.62","turk_code":"7uwhv3rggt3j"},{"rt":602.5999999046326,"response":0,"first":"other","answer":0,"name":"Lawrence","otherName":"Rose","namedWug":[1,1,1,0],"otherWug":[1,1,1,1],"trial_type":"canvas-button-response","trial_index":244,"time_elapsed":232445,"internal_node_id":"0.0-4.1-0.60-2.60-1.60-0.60","turk_code":"7uwhv3rggt3j"},{"rt":127.60000002384186,"stimulus":"<div><b>Correct!</b></div><div> </div><div>Press any key to continue</div>","response":0,"first":"other","answer":0,"name":"Lawrence","otherName":"Rose","namedWug":[1,1,1,0],"otherWug":[1,1,1,1],"trial_type":"html-keyboard-response","trial_index":245,"time_elapsed":232574,"internal_node_id":"0.0-4.1-0.60-2.60-1.60-1.60","turk_code":"7uwhv3rggt3j"},{"rt":645.7999999523163,"response":0,"namedWug":[0,0,1,0],"otherWug":[0,0,1,1],"name":"Ray","otherName":"Vincent","left":1,"trial_type":"canvas-button-response","trial_index":246,"time_elapsed":233222,"internal_node_id":"0.0-4.1-0.61-0.61","turk_code":"7uwhv3rggt3j","correct":true},{"rt":991.5,"response":0,"name":"Ray","otherName":"Vincent","namedWug":[0,0,1,0],"otherWug":[0,0,1,1],"trialCorrect":true,"trial_type":"canvas-button-response","trial_index":247,"time_elapsed":234216,"internal_node_id":"0.0-4.1-0.61-1.61","turk_code":"7uwhv3rggt3j"},{"rt":692.3999999761581,"response":1,"namedWug":[0,0,1,1],"otherWug":[1,1,0,0],"name":"Vincent","otherName":"Theresa","left":0,"trial_type":"canvas-button-response","trial_index":248,"time_elapsed":234912,"internal_node_id":"0.0-4.1-0.62-0.62","turk_code":"7uwhv3rggt3j","correct":true},{"rt":1080.6000000238419,"response":0,"name":"Vincent","otherName":"Theresa","namedWug":[0,0,1,1],"otherWug":[1,1,0,0],"trialCorrect":true,"trial_type":"canvas-button-response","trial_index":249,"time_elapsed":235995,"internal_node_id":"0.0-4.1-0.62-1.62","turk_code":"7uwhv3rggt3j"},{"rt":1340,"response":0,"namedWug":[0,0,0,1],"otherWug":[0,0,1,1],"name":"Danielle","otherName":"Vincent","left":1,"trial_type":"canvas-button-response","trial_index":250,"time_elapsed":237338,"internal_node_id":"0.0-4.1-0.63-0.63","turk_code":"7uwhv3rggt3j","correct":true},{"rt":844.6999999284744,"response":0,"name":"Danielle","otherName":"Vincent","namedWug":[0,0,0,1],"otherWug":[0,0,1,1],"trialCorrect":true,"trial_type":"canvas-button-response","trial_index":251,"time_elapsed":238185,"internal_node_id":"0.0-4.1-0.63-1.63","turk_code":"7uwhv3rggt3j"},{"rt":786.6000000238419,"stimulus":"<div> This phase of the experiment is over.</div><div>For the next phase, please provide us with some demographic information.</div><div>Press any key to begin.</div>","response":" ","trial_type":"html-keyboard-response","trial_index":252,"time_elapsed":238974,"internal_node_id":"0.0-5.0","turk_code":"7uwhv3rggt3j"},{"rt":7743.399999976158,"response":{"Q0":"21","Q1":"english","Q2":"american","Q3":"usa"},"trial_type":"survey-text","trial_index":253,"time_elapsed":246723,"internal_node_id":"0.0-6.0","turk_code":"7uwhv3rggt3j"},{"rt":4515.899999976158,"response":{"Q0":"Female","Q1":"Yes","Q2":"Some college or university"},"question_order":[0,1,2],"trial_type":"survey-multi-choice","trial_index":254,"time_elapsed":251242,"internal_node_id":"0.0-7.0","turk_code":"7uwhv3rggt3j"},{"rt":4004.7000000476837,"stimulus":"<div> This phase of the experiment is over.</div><div>For the next phase, you will be asked to list whatever robots come to mind, as they come to mind, one at a time.</div><div>You will have 30 seconds to complete this task.</div><div>Please enter one name per text box, and then press enter.</div><div>Press any key to begin.</div>","response":" ","trial_type":"html-keyboard-response","trial_index":255,"time_elapsed":255248,"internal_node_id":"0.0-8.0","turk_code":"7uwhv3rggt3j"},{"trial_type":"call-function","trial_index":256,"time_elapsed":255252,"internal_node_id":"0.0-9.0","turk_code":"7uwhv3rggt3j"},{"rt":4759.899999976158,"response":{"Q0":"danielle"},"trial_type":"survey-text","trial_index":257,"time_elapsed":260015,"internal_node_id":"0.0-10.0-0.0","turk_code":"7uwhv3rggt3j"},{"rt":2212.899999976158,"response":{"Q0":"ray"},"trial_type":"survey-text","trial_index":258,"time_elapsed":262232,"internal_node_id":"0.0-10.1-0.1","turk_code":"7uwhv3rggt3j"},{"rt":737.6000000238419,"response":{"Q0":"rose"},"trial_type":"survey-text","trial_index":259,"time_elapsed":262973,"internal_node_id":"0.0-10.2-0.2","turk_code":"7uwhv3rggt3j"},{"rt":3447.100000023842,"response":{"Q0":"vincent"},"trial_type":"survey-text","trial_index":260,"time_elapsed":266424,"internal_node_id":"0.0-10.3-0.3","turk_code":"7uwhv3rggt3j"},{"rt":2016.5999999046326,"response":{"Q0":"russell"},"trial_type":"survey-text","trial_index":261,"time_elapsed":268445,"internal_node_id":"0.0-10.4-0.4","turk_code":"7uwhv3rggt3j"},{"trial_type":"survey-text","trial_index":262,"time_elapsed":285254,"internal_node_id":"0.0-10.5-0.5","turk_code":"7uwhv3rggt3j"},{"rt":8101.900000095367,"stimulus":"<div> This phase of the experiment is over.</div><div>For the next phase, you will be asked to choose the name of the displayed robot.</div>","response":" ","trial_type":"html-keyboard-response","trial_index":263,"time_elapsed":293358,"internal_node_id":"0.0-11.0","turk_code":"7uwhv3rggt3j"},{"rt":2624.3000000715256,"response":4,"name":"Rose","name_choices":["Vincent","Ray","Lawrence","Theresa","Russell","Wayne","Danielle","Rose"],"wug":[1,1,1,1],"names":["Rose","Russell","Lawrence","Danielle","Wayne","Ray","Theresa","Vincent"],"trial_type":"canvas-button-response","trial_index":264,"time_elapsed":295986,"internal_node_id":"0.0-12.0-0.0","turk_code":"7uwhv3rggt3j"},{"rt":2632.399999976158,"response":1,"name":"Russell","name_choices":["Vincent","Ray","Lawrence","Theresa","Russell","Wayne","Danielle","Rose"],"wug":[0,0,0,0],"names":["Rose","Russell","Lawrence","Danielle","Wayne","Ray","Theresa","Vincent"],"trial_type":"canvas-button-response","trial_index":265,"time_elapsed":298622,"internal_node_id":"0.0-12.1-0.1","turk_code":"7uwhv3rggt3j"},{"rt":521.8999999761581,"response":2,"name":"Lawrence","name_choices":["Vincent","Ray","Lawrence","Theresa","Russell","Wayne","Danielle","Rose"],"wug":[1,1,1,0],"names":["Rose","Russell","Lawrence","Danielle","Wayne","Ray","Theresa","Vincent"],"trial_type":"canvas-button-response","trial_index":266,"time_elapsed":299147,"internal_node_id":"0.0-12.2-0.2","turk_code":"7uwhv3rggt3j"},{"rt":578.7999999523163,"response":3,"name":"Danielle","name_choices":["Vincent","Ray","Lawrence","Theresa","Russell","Wayne","Danielle","Rose"],"wug":[0,0,0,1],"names":["Rose","Russell","Lawrence","Danielle","Wayne","Ray","Theresa","Vincent"],"trial_type":"canvas-button-response","trial_index":267,"time_elapsed":299729,"internal_node_id":"0.0-12.3-0.3","turk_code":"7uwhv3rggt3j"},{"rt":595.3000000715256,"response":0,"name":"Wayne","name_choices":["Vincent","Ray","Lawrence","Theresa","Russell","Wayne","Danielle","Rose"],"wug":[1,1,0,1],"names":["Rose","Russell","Lawrence","Danielle","Wayne","Ray","Theresa","Vincent"],"trial_type":"canvas-button-response","trial_index":268,"time_elapsed":300327,"internal_node_id":"0.0-12.4-0.4","turk_code":"7uwhv3rggt3j"},{"rt":805.3999999761581,"response":6,"name":"Ray","name_choices":["Vincent","Ray","Lawrence","Theresa","Russell","Wayne","Danielle","Rose"],"wug":[0,0,1,0],"names":["Rose","Russell","Lawrence","Danielle","Wayne","Ray","Theresa","Vincent"],"trial_type":"canvas-button-response","trial_index":269,"time_elapsed":301135,"internal_node_id":"0.0-12.5-0.5","turk_code":"7uwhv3rggt3j"},{"rt":554.5,"response":7,"name":"Theresa","name_choices":["Vincent","Ray","Lawrence","Theresa","Russell","Wayne","Danielle","Rose"],"wug":[1,1,0,0],"names":["Rose","Russell","Lawrence","Danielle","Wayne","Ray","Theresa","Vincent"],"trial_type":"canvas-button-response","trial_index":270,"time_elapsed":301693,"internal_node_id":"0.0-12.6-0.6","turk_code":"7uwhv3rggt3j"},{"rt":880.3999999761581,"response":3,"name":"Vincent","name_choices":["Vincent","Ray","Lawrence","Theresa","Russell","Wayne","Danielle","Rose"],"wug":[0,0,1,1],"names":["Rose","Russell","Lawrence","Danielle","Wayne","Ray","Theresa","Vincent"],"trial_type":"canvas-button-response","trial_index":271,"time_elapsed":302576,"internal_node_id":"0.0-12.7-0.7","turk_code":"7uwhv3rggt3j"},{"rt":1096.2999999523163,"stimulus":"<h4>Thank you for your participation!</h4><h4>In order to complete this HIT, you must enter the code below into Turk.</h4><h4>Your secret completion code is:<br><br>7uwhv3rggt3j<br><br>Copy this code now.</h4><h4>Once you\'ve copied it, click the button below to leave this window.</h4>","response":0,"trial_type":"html-button-response","trial_index":272,"time_elapsed":303676,"internal_node_id":"0.0-13.0","turk_code":"7uwhv3rggt3j"},{"rt":893.6000000238419,"stimulus":"<DIV align=\'left\'><div>&nbsp;</div><div><strong>Study Debriefing</strong></div><div>Judgement and decision making are important aspects of public and private life. Using surveys</div><div>like the one you just completed, we are examining the factors that go into making social</div><div>decisions.</div><div>&nbsp;</div><div><strong>How is this being tested?</strong></div><div>We have asked you to respond to stories or videos that differ on several important factors. By</div><div>isolating different variables that are involved in social thought, we can better understand how we</div><div>arrive at complex decision-making. For example, some actions are seen as more worthy of blame</div><div>if they are performed intentionally. Harming someone on purpose is generally worse than</div><div>harming someone by accident, or even harming someone in a way that is foreseen but not</div><div>intended.</div><div>&nbsp;</div><div><strong>Main questions and hypotheses:</strong></div><div>A fundamental goal of our research is to understand the cognitive and emotional factors that</div><div>influence social judgment and decision-making. We are studying these factors by presenting</div><div>people with hypothetical questions that vary in specific ways and seeing which factors make a</div><div>difference. Some people filled out the same survey that you just filled out. Others got slightly</div><div>different surveys.</div><div>&nbsp;</div><div><strong>Why is this important to study?</strong></div><div>By comparing answers on these important factors, we learn about what factors affect social</div><div>judgment. This has crucial implications for many public domains, including the legal system.</div><div>&nbsp;</div><div><strong>How to learn more:</strong></div><div>If you are interested in learning more, you may want to consult the following articles:</div><div>Phillips, J., &amp; Cushman, F. (2017). Morality constrains the default representation of what is</div><div style=\'padding-left: 30px;\'>possible. Proceedings of the National Academy of Sciences of the United States of</div><div style=\'padding-left: 30px;\'>America, 114(18), 4649&ndash;4654. https://doi.org/10.1073/pnas.1619717114</div><div>Phillips, J., Morris, A., &amp; Cushman, F. (2019). How we know what not to think.</div><div style=\'padding-left: 30px;\'>Trends in Cognitive Sciences, 23(12), 1026&ndash;1040. https://doi.org/10.1016/j.tics.2019.09.007</div><div>Phillips, J., Buckwalter, W., Cushman, F., Friedman, O., Martin, A., Turri, J., Santos, L., &amp;</div><div style=\'padding-left: 30px;\'>Knobe, J. (2020). Knowledge before Belief. Behavioral and Brain Sciences, 1-37.</div><div style=\'padding-left: 30px;\'>doi:10.1017/S0140525X20000618</div><div>&nbsp;</div><div><strong>How to contact the researcher:</strong></div><div>If you have questions or concerns about your participation or</div><div>payment, or want to request a summary of research findings, please contact the Primary</div><div>Investigator: Dr. Jonathan Phillips, at Jonathan.S.Phillips@dartmouth.edu.</div><div>Whom to contact about your rights in this research:</div><div>If you have questions, concerns,</div><div>complaints, or suggestions about the present research, you may call the Office of the Committee</div><div>for the Protection of Human Subjects at Dartmouth College (603) 646-6482 during normal</div><div>business hours.</div><div>&nbsp;</div><div><strong>Thank you for your participation!</strong></div><div>&nbsp;</div></DIV>","response":" ","trial_type":"html-keyboard-response","trial_index":273,"time_elapsed":304571,"internal_node_id":"0.0-14.0","turk_code":"7uwhv3rggt3j"}]'}
